timestamp,AccelerationX,AccelerationY,AccelerationZ,MagneticFieldX,MagneticFieldY,MagneticFieldZ,Z-AxisAgle(Azimuth),X-AxisAngle(Pitch),Y-AxisAngle(Roll),GyroX,GyroY,GyroZ,session,location_id,device
1422629490813,-0.2563452209307444,-8.637065184027582,6.31950725553222,5.277673055809869,32.612541684247155,2.4563211194490444,350.79163185420646,51.89751389572082,0.448932366110006,-0.0025906095108959998,0.12765042906662477,-0.2867929907313349,1,34,smartwatch
1422629490913,0.3156733079053291,-7.8720000827999,6.026754114295517,5.996722451556616,35.00873919941997,0.6474958597641978,350.9752691515306,51.1711389389482,-0.4038601860867259,-0.01045077027654466,0.25709412462480047,0.03329849403373791,1,34,smartwatch
1422629491013,-0.09381432462838846,-8.571842707577822,6.061044167136245,3.753476110649627,33.097116331052725,1.4168459781592198,356.2326108636717,52.45633505700195,0.01126715508815268,-0.07926122351906378,0.2515866298568398,0.23875422921649841,1,34,smartwatch
1422629491113,0.03806051343551309,-7.630935421815147,5.606373703025546,4.123945396926997,32.719072061249385,0.766031690346934,343.1230806116262,52.141641242538554,-0.07531969075077205,0.042720373404094264,-0.1619714470553664,-0.07845934799674895,1,34,smartwatch
1422629491213,0.16461722824588776,-7.770642252639943,5.727115294607442,3.2814707499637477,34.45324861321453,1.2646696049526711,359.7502077298862,53.65271449282218,-0.6065388418416484,-0.05083768013615382,-0.10686573100302296,0.17551305916882842,1,34,smartwatch
1422629491313,0.2121573377222128,-8.431235301442948,6.489114873926605,3.325655982914385,30.053268559973834,1.7424622362109554,342.44233409069716,54.233419715046395,1.5261189680909797,0.04032427117678175,-0.1673994506620275,-0.15609365786390683,1,34,smartwatch
1422629491413,0.1466371410420294,-8.683363515676254,6.44907137266757,4.269339385071984,30.78878625814288,0.8937770789372645,341.3506592107428,53.21845018539465,1.135295892909085,-0.008021110835276193,0.14458046892636434,-0.15351577339308975,1,34,smartwatch
1422629491513,0.3976148353725202,-8.236101203092083,6.029697412941627,4.410645548082956,30.79664656300559,1.626891821957525,346.79977021842313,54.88443096314376,-1.1621488236505009,0.06555754852766318,-0.28213916895773633,0.26103591759009187,1,34,smartwatch
1422629491613,-0.27245802075196257,-8.271768899823542,6.493062953191696,2.582599371470322,32.884792342245795,2.384691186207823,343.5711037720739,54.795352802580865,-1.6048837702082048,0.09880405708001391,0.21637626623126655,0.28878718245105733,1,34,smartwatch
1422629491713,0.1342318306242557,-8.537101387959035,6.308263258293031,3.7194037272623746,31.489592302983137,2.4728394621897816,351.10334040809823,50.00162690711336,0.453014703573416,0.08815463093685277,0.15952289872359243,0.1470803110869245,1,34,smartwatch
1422629491813,-0.4370879169420503,-8.935817643269015,6.295338430584435,3.7915817114972916,31.85217521246293,0.489746313617611,356.6697591966338,51.78071397813789,1.1982132055258958,0.013285712166726804,0.29846001271711814,0.10332322626900375,1,34,smartwatch
1422629491913,-0.01017325197200214,-7.707204208315265,5.80817523474995,3.215664113586061,35.83952137145007,2.989865017928797,343.6683776629139,52.78498487517704,-0.8530813890245024,0.02736656806499868,0.10319517146940016,-0.08923025126056464,1,34,smartwatch
1422629492013,-0.004682763173538218,-7.703724153403882,6.040615828317677,4.558731969670731,31.8475634241965,1.41850757125994,345.27274510514434,51.95407120094842,1.4797759931766894,-0.059033985888947926,0.28126120770921853,0.08306841379156504,1,34,smartwatch
1422629492113,-0.25143865696218415,-8.444353627940957,5.687444976506301,5.316826031400118,33.41449854780682,1.1244973056110237,351.3811965218113,54.13608710032776,-0.29998604418682806,0.01241780541819762,0.24037641712119434,-0.10906782004133186,1,34,smartwatch
1422629492213,-0.0988629565579926,-7.547215836501867,6.2621385164949395,5.746676786197796,35.328755236816875,1.8157928845359192,358.70485044298243,50.15859318169134,-1.5412906170558034,-0.044870659276937855,0.18207202618986063,0.09664313224691845,1,34,smartwatch
1422629492313,-0.4181498268479932,-7.740466143239255,6.014706028823156,4.805024657564703,33.90703181516137,1.0288560231178727,355.6644992548592,53.42150418341142,1.927011953909893,0.035348242083092896,0.21149729124387234,0.08034577992160769,1,34,smartwatch
1422629492413,-0.46197627080982306,-7.96838884417552,5.56996691701501,5.10146560327974,34.04933355640555,1.701673622271815,346.6382321729989,50.267896096497786,-1.592081689481057,0.012144532261142066,-0.27925530149948935,-0.04368295223704144,1,34,smartwatch
1422629492513,-0.40050733062770816,-8.111516355440603,5.621711254021539,5.163259773190315,33.26650322219688,1.456175942740933,352.2391652610115,53.741540462053806,-0.6368084651773702,0.013787100797030633,-0.10840851094480611,-0.18578884744609947,1,34,smartwatch
1422629492613,-0.1876977076789531,-8.706377285095074,6.427075633709579,2.739143279118768,33.58744459208408,1.0248732862786798,352.55121373410174,54.153128794943015,0.12807142076512612,-0.05977302800048239,-0.28110927322747803,0.2882988185096205,1,34,smartwatch
1422629492713,0.20295188814139198,-7.55646307791298,5.60370487950098,3.636690955420658,35.70913083822755,0.7040299487871504,347.42645800145465,54.043745257312864,1.7731253252132575,-0.06295844188606133,-0.01859681912782929,0.08987415352543393,1,34,smartwatch
1422629492813,-0.38367258677744975,-8.471192885620841,6.392305817353962,3.633108450843107,34.40892707320239,0.7760309673897718,340.25510397607405,52.680028340217135,0.6636515722440244,-0.07818566586028314,-0.16486089892279882,-0.2936018869768432,1,34,smartwatch
1422629492913,0.39180776724585564,-7.617113163517197,5.848036682683259,4.945252969322569,35.09615786174619,1.3771067185425128,347.8558728665635,54.61951966453573,-0.4504275711417911,0.07633105809774762,0.1040040542211021,0.13952882507864667,1,34,smartwatch
1422629493013,0.12719281837563845,-8.402208840503613,6.273945145682546,3.4772074843260543,35.62844470629061,2.416657106767786,350.2075845867927,52.46021756062413,-0.19375250561736568,0.02948725654071782,-0.20841273546244898,0.2679211991427301,1,34,smartwatch
1422629493113,-0.4262062961285096,-8.007919508520994,5.644659922959625,5.683496616853123,35.83787477300088,0.5063220196426983,344.3198459946554,50.48066256126192,0.6897315625269989,0.010437388984003884,-0.29690480373920153,0.02923170465823649,1,34,smartwatch
1422629493213,0.35586490027360895,-8.325305963990559,6.280992361050529,2.503271638420268,33.92197655025164,2.3603436609956634,355.74222329360657,54.970276653454846,1.8119699706277927,-0.05114047899266341,-0.12406328268158395,0.0367701322169815,1,34,smartwatch
1422629493313,0.023855513442781695,-8.109772592085957,6.06821200632995,3.148014404135557,30.51794961731946,2.01579047067688,359.79953292585043,51.495156513725675,-1.551724043421093,-0.08941562949587685,-0.21968891054150108,-0.2506837482737227,1,34,smartwatch
1422629493413,0.35956942213451837,-8.60999525811205,5.557456835773758,4.257645672586335,31.38116037412517,1.8907266795799897,350.56754172980436,51.41209344242929,-1.630484369780537,-0.03989567604112246,-0.14710450473510092,0.2748011990379275,1,34,smartwatch
1422629493513,0.22036231207257362,-8.46834323981966,6.148304719311833,3.648068227909475,31.835704040594234,0.49412993206824696,354.04536190561555,50.76812699190817,0.7608263148096053,-0.08445490239939357,0.25242398200815613,-0.29969181545905166,1,34,smartwatch
1422629493613,0.18804972485475124,-7.553302199777198,6.031724616250319,3.2179075080554704,34.85124035779712,1.2198823155166088,343.4166914062499,52.80928705520994,-0.13106773312879794,0.004177098933447948,-0.11469202620310331,0.21791633564589247,1,34,smartwatch
1422629493713,-0.1865904503787763,-8.696434010982307,6.104033406147008,4.572329772724551,32.818461042551164,1.4735907660149312,357.4219137191229,50.733592503777345,1.1056042346717034,0.08053040724546895,0.26586814289316824,0.27289264911675,1,34,smartwatch
1422629493813,-0.25129799096049543,-7.708670730092579,6.187696616212326,4.221377835083173,31.997704509691822,0.8508305789949242,349.93984582942494,54.82820770408199,-1.9661934663278364,-0.05932530894928263,0.003882340435131082,-0.15862852729678548,1,34,smartwatch
1422629493913,-0.29954939866086316,-8.019579721979712,6.472888719405351,4.133914502155525,31.17087517195998,1.5381648431802624,341.98239545243405,53.33951424016183,1.899057445364825,-0.05321499248783528,-0.0030131995808340695,0.1707299415931267,1,34,smartwatch
1422629494013,0.3937462396664466,-8.154629213623055,6.414029226260746,4.927323376930024,35.30697875617096,1.8748456683640415,353.3034530199059,53.28906688944254,-1.9808289408305795,0.0505189879284115,-0.07156741081490892,-0.15239093649978586,1,34,smartwatch
1422629494113,-0.2618857151871836,-8.87246462505217,5.757041368416932,3.5428027562459334,34.014345977456806,1.5366442483782343,356.26717463918885,54.89993980333909,1.0885336422865683,-0.04934385327060447,0.14415696962051716,-0.1280986603801724,1,34,smartwatch
1422629494213,-0.038827821954294905,-8.106392441476109,5.881077847240103,2.6534350554921007,33.007787408003296,1.909427992713047,342.86502420448033,51.19878106573183,-0.8076068531973015,-0.009572946474526889,0.09129924887640872,-0.06559655367762249,1,34,smartwatch
1422629494313,0.20832709540654226,-8.326834088170607,5.537894952961125,2.541973340274031,30.13078147718478,2.5340764685473123,351.8087382908375,53.92891043264077,1.1318426056186595,0.03924576929592205,0.09056071303152319,0.16029960781127545,1,34,smartwatch
1422629494413,0.13937963142072407,-8.24560232121959,5.64509789465441,4.051184073640269,32.02585173895182,2.83370392371549,341.85536683228685,54.60667130956554,-0.39358357434665603,-0.09083450787821652,-0.0018136190934884833,0.0592911445690536,1,34,smartwatch
1422629494513,0.42998465593186996,-8.699301350198139,5.897897653519414,2.9814534183531602,33.14066385958811,2.453843080066795,350.97835757502935,53.21775946273806,-1.8759683249484338,0.07735862876913832,-0.24337560619149845,-0.0064782120260166165,1,34,smartwatch
1422629494613,-0.20364237922517647,-8.889678343194465,6.209013197917252,5.646764460684343,34.63715523728045,0.8365258280619476,340.86219227039317,53.48362183958216,-0.028326646466496186,-0.0800601241469662,-0.09467985281345287,0.14498836576267815,1,34,smartwatch
1422629494713,0.24928680046034302,-8.73059245037062,5.764215502822261,2.4327565025968263,31.031005166663256,1.2050486191595637,342.5578255434057,50.84450445689729,1.1500067647615366,0.06390642912188879,0.2185021316669718,-0.06573610036549057,1,34,smartwatch
1422629494813,0.2751184725732255,-8.228098412617117,5.606264805876611,2.196524957084611,33.65520602312763,2.8853930153661875,343.22589190296566,52.952725944102106,0.1585758855640278,0.02276131781452828,0.04242708667953493,-0.28110066618906593,1,34,smartwatch
1422629494913,0.25713256715888955,-8.789674363940343,6.489292852980455,3.7619681214515177,32.08516311332817,1.9248640016379872,354.23023618430244,53.58528032324859,0.9803683008640802,0.0009535986624100712,0.15401748960239764,-0.12468887996161934,1,34,smartwatch
1422629495013,0.1059367507482527,-8.359482396521845,5.948347560166802,3.80279015460932,34.73616029942951,2.0747297481704825,341.3573672343572,50.58340771635911,-0.14803509557100192,0.030083326493015844,-0.13213365281953687,-0.25374655681974007,1,34,smartwatch
1422629495113,0.2483296689024841,-8.285476692191205,6.360088343957021,3.7704003451504486,33.070844954960705,0.6663275846914489,341.19074316696845,54.79661138717344,-0.5686731326776133,0.026471246482051264,0.20082866008024786,0.0007548170144456856,1,34,smartwatch
1422629495213,0.24414185226419016,-8.191392661262594,5.844096997651951,4.829593712452397,30.866729874899953,1.9445013115825631,348.61365665808745,51.863025851335856,0.6239605149595775,-0.09254163360245578,0.10325417201343168,-0.2833786579232739,1,34,smartwatch
1422629495313,-0.1282146908872961,-8.719272162562541,6.135358336746282,2.752666884664383,31.879493752452465,0.5223483741830793,354.21851986384564,50.923046125396596,1.4605131285714625,-0.05845747743266072,0.09441662880477153,-0.05266925913965592,1,34,smartwatch
1422629495413,0.40067700761754654,-8.555355690817812,5.930579271270776,5.480721385753693,32.837775694135004,0.3494309946746828,351.5059066046373,52.98153927904082,1.6697072352272255,0.09701005838534146,0.22183450071416283,0.07493108042334395,1,34,smartwatch
1422629495513,0.1438212367639542,-8.74621308685407,6.455685254613882,4.192882607682787,34.68688548133939,1.1329705444746607,359.4009167796197,50.255084919925004,-0.6207975802843908,-0.08674345565299116,-0.07952510777481539,-0.00022257502137529306,1,34,smartwatch
1422629495613,-0.29647646497492053,-8.549063270183614,6.17908743826539,4.68236150865611,33.26196948509477,0.3308293787955585,358.5839702352892,52.690782528207365,1.2215964274277589,0.024838239102188492,-0.2015405153915365,0.10337124808021986,1,34,smartwatch
1422629495713,-0.4942445189769107,-8.819963238883329,5.522058902208296,4.051152186465311,33.80141829837033,1.7415337865747234,350.24017140289396,50.13030070319153,-1.8107441427291944,-0.027263629777687412,-0.2625603090182916,-0.2525405085252043,1,34,smartwatch
1422629495813,0.22218581086037692,-8.892017863993283,5.554556697370374,4.639495121904024,33.16653789779556,2.898067645068362,359.1940070407028,54.622609794079686,1.0412957075272389,0.016074003799815537,-0.23379120673634968,-0.08005555365771647,1,34,smartwatch
1422629495913,0.41770030528989444,-7.581709208564002,6.059587852392191,3.9569835318588216,34.672811377464484,0.8716873052274203,341.02911317745435,51.14482714452931,1.732813943077038,0.05338709016030682,0.05987600263573273,0.09876685242706623,1,34,smartwatch
1422629496013,0.43890083249703427,-7.5547807784675145,5.628853720932421,5.144147635551485,34.656541932605265,0.7273539639004475,342.7276068382707,50.2701865035476,-0.039580486597531994,0.028922258674729945,0.1835736659792066,0.2861793660711391,1,34,smartwatch
1422629496113,-0.24767822892407387,-8.999736437835546,5.869823018378098,4.0915827649869705,32.145445498754995,0.6644831670051952,354.53797629475326,52.07579729324217,1.6286789086154334,0.09409530143362951,-0.2536717950415635,-0.020094274540754797,1,34,smartwatch
1422629496213,0.2229608902727258,-8.417653829591213,6.459457206952423,3.847445343103076,30.36241193591205,0.49838852450798815,340.4886971730206,54.64774481592027,-1.8181229269355716,-0.06628288014435185,-0.0427390935793317,0.21822669881324014,1,34,smartwatch
1422629496313,0.08434538189678542,-8.036113956380674,5.9785056871898234,2.459614978428556,30.731767490049215,0.8249372956149683,359.51642589281465,54.90042170007645,1.1552168673935594,-0.00036265919293720916,0.2974111284751864,0.07698407700481513,1,34,smartwatch
1422629496413,0.24092673987799773,-8.647806301148455,5.791847606937037,2.15312459012041,32.84456162349613,1.0945278197600217,349.0538350682513,50.360732418857346,-0.4456968105763446,-0.08758878410033957,0.1426248404740489,-0.25589510173571267,1,34,smartwatch
1422629496513,0.4517189494233529,-7.970637096952548,6.140594064306141,4.3529317876250175,34.27619380657079,0.661209683221943,351.84433630468385,50.29457791302734,-0.49392883061157544,-0.07470590244735378,0.21658216727745133,0.14716675954335912,1,34,smartwatch
1422629496613,-0.301005694577295,-8.287744397001111,6.222108690623514,3.94386158130807,30.675020908903747,1.7452102391034843,348.4574020142202,50.08058108828051,1.973168993940535,0.09418900673574893,-0.052822011928183976,0.04950834224191958,1,34,smartwatch
1422629496713,0.308780460961,-8.112187980626366,5.795820162995426,3.1878539301816153,35.49384483233761,0.8281709014497123,345.88204867431705,53.998319463479895,1.158524158059783,-0.0804476585854621,-0.18264049206584582,-0.2814391750136108,1,34,smartwatch
1422629496813,-0.21944109101944864,-7.874087545860803,5.588238467077124,3.390848029154681,33.114190191233654,0.558807831393112,355.57053254868305,54.8773710605963,0.0555873450157538,-0.0034686120759933603,0.18153586601824467,0.026492219419889274,1,34,smartwatch
1422629496913,-0.28408603623319073,-8.34399203572181,5.904236796617605,5.164297106807308,30.157534804277915,1.0537828020432267,356.5453072131629,52.16685008641675,0.26558454281065647,-0.07995774073389968,0.22600418024832908,0.2231608494217167,1,34,smartwatch
1422629497013,-0.42124671674824266,-8.27256692066326,5.833808563054711,2.365803682705778,33.042927795676555,1.573330186789791,340.5648216680077,50.69361710297253,1.9899328675112167,0.029392671287994193,0.14580979339187433,-0.10748128975289217,1,34,smartwatch
1422629497113,-0.47119594467375525,-7.908132945283857,5.988020894767396,4.2763513432896225,32.16729043893564,2.7926025872442133,355.3973803546245,54.1879036735465,1.2894195931702592,0.09421684518592335,-0.055599378252202236,0.0708611824368156,1,34,smartwatch
1422629497213,0.34070297140053496,-8.581727970565932,6.066728229309448,2.8812115344357627,34.55106847859714,0.6607856124593423,351.1908641342033,52.26635780118687,-1.8396277653399622,-0.05617406628668675,0.24427339931228248,0.22252958209193646,1,34,smartwatch
1422629497313,0.2714274108408524,-7.604512297323218,6.320243910376782,3.239532847264036,35.82069900324895,2.8298584367137156,353.09197964357537,52.14130542818842,-0.7631452189843064,-0.023430961615836104,-0.21618204212584946,-0.25038375351731407,1,34,smartwatch
1422629497413,0.17684875428576474,-8.859814932189762,6.051987230211918,5.427557247312851,35.80116576185237,1.8179731798223793,355.6053564650821,51.08536088604033,1.4084552100286878,0.05063107942712197,0.2752311409627671,0.06395632209656349,1,34,smartwatch
1422629497513,-0.44891556584270575,-8.176980376852546,5.680013628302281,3.5117555391718374,32.19074610406609,1.8731300250931848,340.7406507836272,54.07016163129319,-1.1200593240976886,0.04926182806470586,0.21867429999890947,-0.2238784397407384,1,34,smartwatch
1422629497613,-0.4492169844114706,-8.40062363966381,6.349984257237477,2.5647945154275082,33.316476285665786,2.139594116397846,358.09611136008095,50.93869160759285,-0.706532824277267,-0.045992269710317404,0.0018458353044333853,0.05096014997845466,1,34,smartwatch
1422629497713,0.08421987995969449,-8.694404549834816,5.905231204560283,5.403053360574135,34.37029286351239,0.7992506181613546,342.05989747612847,50.587752724108775,-1.7151230429099953,0.0639687226365816,0.24253696154161003,0.26395476398946277,1,34,smartwatch
1422629497813,0.1479283356122315,-8.99377570386835,5.769297171321223,3.4006463544559047,31.81200483415485,2.889884143007982,344.399442676165,54.58575506887829,-1.352117024513399,-0.06204560955478314,-0.08035168912588564,-0.23976655460012364,1,34,smartwatch
1422629497913,-0.03275437535627601,-8.530022749100887,6.12828506360245,5.6190150933941965,31.051420984931013,2.9994935016547077,347.6287666562459,52.95322849568241,-1.0780065886174888,-0.06854325654555124,-0.07520669378447009,0.06136737067342113,1,34,smartwatch
1422629498013,-0.023571478890191955,-8.528968712063076,5.80506878065731,5.586080765760061,35.939276970676424,1.6248403054791816,343.489996419821,53.76905859771985,-1.1152478427004762,-0.04295844469550472,0.2815405950115761,0.033224490832181375,1,34,smartwatch
1422629498113,-0.4874076107196893,-8.08197181855319,6.364143352851366,5.529786935445134,30.561622518915346,0.6598631412357235,359.9534689762087,53.00009850314405,-0.7606206328980281,-0.075925272017282,0.0804583844734641,0.030677646007958304,1,34,smartwatch
1422629498213,0.46976427039013036,-7.877479369250498,5.986051662598294,3.6895862260389807,34.86527315598469,1.5075292549484036,342.4878858795382,52.195842122100274,1.3183768371830453,-0.0006022545621494207,0.08239016092157087,-0.2901293854727115,1,34,smartwatch
1422629498313,0.1606949525800413,-7.529086332366804,5.744014988427049,2.738477411443309,32.916891750539136,2.263650409753027,347.8410822050052,51.66798190527739,-0.2629403794805856,-0.04134201563175391,0.06721297281045313,-0.29704046444032955,1,34,smartwatch
1422629498413,0.35773435865332837,-8.527081985917647,5.553180139937158,5.100352725389332,34.672736190271145,2.171968435973568,354.0894708958892,52.630871224776435,-1.5175716005886692,0.07916406899381384,-0.06928349910626677,-0.16546324381092017,1,34,smartwatch
1422629498513,-0.014044984885776435,-7.782780794069394,6.061665114994453,2.393376340191842,32.24352255289978,1.5000954826766482,349.8693812685048,52.13189741858904,0.7592672679459471,0.009600971555166996,-0.18348643212651172,-0.23847199128656987,1,34,smartwatch
1422629498613,-0.016616639782238485,-8.466956723179347,5.988865751368187,3.9725573936534433,31.79418345563132,1.9164852192474164,359.2583968880694,53.353029109083444,0.13175852653808118,0.005160484394881079,0.21886407603382413,-0.25217500709275875,1,34,smartwatch
1422629498713,-0.09335809127905415,-7.589832437268825,6.451869670235704,5.453917384699446,35.8119278690554,0.880037855205068,359.04024357679543,50.21010192644131,-1.7215869784450866,0.0648209821951653,-0.19883009784357264,-0.2799733673806298,1,34,smartwatch
1422629498813,-0.24823130593773823,-8.536226930507773,5.657839198270678,4.940307642055433,30.017230975768676,1.854100962420224,351.1681714693285,53.484343891490205,0.3082246062683862,-0.061091675572852694,-0.017637762183563943,0.11407196486908222,1,34,smartwatch
1422629498913,0.3694524402808026,-7.579868724717153,5.684232166505212,3.132142855841933,31.67732131749798,1.549520769493406,355.62869166692053,54.60379236975673,1.545192798106712,0.028593310169547193,0.27556999276334265,0.2999623652861592,1,34,smartwatch
1422629499013,0.018293701117161443,-8.95176883308147,5.785493274411508,2.7949380661700665,31.200815832129358,1.5943507423544503,349.47609837730226,53.617643688381484,-0.9458600528246763,0.05222546106519374,-0.09679875963695697,0.059687014118818604,1,34,smartwatch
1422629499113,-0.20302097595410995,-8.687012293981681,6.409879849749723,5.664477701383829,30.4724526643565,2.844879207744481,357.9864740103853,54.3527954150497,1.506981255687498,0.07554650990950604,-0.06083219380447205,0.1314853979057714,1,34,smartwatch
1422629499213,-0.21318751124430846,-7.646292379295281,5.890584002747325,4.912310420197909,33.74561676196002,1.1198363548162797,347.52427015504253,51.376756238425614,-0.987413783491851,0.004475141906147756,-0.22101459197302514,-0.2216621576695867,1,34,smartwatch
1422629499313,-0.45411895944355296,-7.795089336694843,5.751288591541849,5.821957723741309,33.17054892942322,1.6451809325053892,350.46018411055127,51.57670119007686,-1.710242277762608,0.025867362072412636,-0.13982341949286112,0.21772348168113959,1,34,smartwatch
1422629499413,0.19384795028384505,-8.4926874456681,6.330441732773807,3.535924379884936,33.6121255304981,1.2954106120724234,354.10936609385374,54.46289316148754,-1.2186738003338582,-0.06005039752483812,0.14429769190635156,-0.1640719587757459,1,34,smartwatch
1422629499513,-0.2729195136093061,-8.336966136637715,6.0372892292955225,5.30775663514294,32.863442775214914,1.1207116654873455,359.9658619367709,50.78771200152809,-1.4981978993065441,-0.09856072373268954,-0.19949120793111674,-0.07267213076171972,1,34,smartwatch
1422629499613,0.13574997061291993,-8.323969635640607,5.561564866007499,2.3385217924407473,31.363324459116683,1.407068212630639,347.8372719896367,50.78283864895126,-1.3958967318279543,0.06575163092063926,0.27090820478599903,-0.19021570270883645,1,34,smartwatch
1422629499713,-0.1851864566388257,-7.782991301184909,6.281576122076322,3.106838400986468,33.106514552121986,2.0861234227558207,355.41057160120135,51.74989267435159,1.7737504001079771,0.09531009490286851,0.026437819851574618,0.27530381119389075,1,34,smartwatch
1422629499813,0.1807117897339534,-8.618108403391709,5.572478381539672,5.187126619427531,32.20375715299233,1.6324858873955264,355.58097381817834,52.54891811199025,-1.746443418905585,0.06284419282046297,0.0693862650917606,0.03281746539125824,1,34,smartwatch
1422629499913,0.10266030954872352,-7.692736421361969,6.385753872747866,3.779804875727466,33.34130975558365,0.5190542512452692,350.9471440713797,52.8478693321307,1.6469370079409429,-0.07668302899049116,-0.2975571966535593,-0.23258670557409983,1,34,smartwatch
1422629500013,0.276209219280249,-8.926242590065186,6.483703241016518,3.026953934491709,34.349752929332155,1.0789173063763127,358.65104933119017,52.92494677012227,-0.6795776592697211,-0.019844673291150833,-0.11603490907599703,0.00462543168379681,1,34,smartwatch
1422629500113,0.27625246271232173,-8.414783978976061,5.943865325677444,5.915644061228125,32.42435519631607,2.8389645845776195,344.83440987222724,52.34672438859787,0.48630453991550704,-0.051309544086508674,-0.12157681627634528,0.25553278448284694,1,34,smartwatch
1422629500213,0.3291146422120832,-8.81211787476883,6.242621733332675,5.838678660794275,31.246377029449558,2.9884325546166126,355.276513420127,53.937158968467756,0.49501705745350355,0.015213533569741977,0.23496277604153232,0.024919503940523224,1,34,smartwatch
1422629500313,-0.34794699610914037,-8.083322846036353,6.03074209492502,4.711873603920035,30.423165643743566,1.250741824610625,348.4644000834584,50.77146422100368,0.986020516831696,-0.05229916524838987,-0.17316695478800861,-0.1818436812581614,1,34,smartwatch
1422629500413,0.3020317405262546,-7.764004533606241,6.116141510781115,3.963161150853607,31.17825128959723,1.3937436592775967,359.8836025934987,52.940196724754045,1.089459211837307,-0.01001514440104452,0.2883160535928641,0.10275795877394395,1,34,smartwatch
1422629500513,0.15888134070990922,-7.829383073518044,5.506177861705231,4.229457277173182,35.55476919101181,0.3219945580471153,356.7905814546311,53.74761019773959,-0.06268670338993276,-0.062067408989652996,-0.18196955488284489,-0.24215455146970977,1,34,smartwatch
1422629500613,0.3621688901949387,-8.987714407481066,6.410738285336131,3.782036119237398,30.028121506136163,0.9370918276362701,343.7663167153073,54.40728678216249,1.4194546119871156,0.03685235672635445,0.22392906470018442,0.07659134311217408,1,34,smartwatch
1422629500713,0.46011614618677277,-7.514667205467642,6.128751339668692,3.2787446011248695,31.00226894080217,0.5666797883781819,345.96199755985566,54.314961862810854,-1.8821662774249384,-0.056799962144429,0.14657678789502665,-0.23689910478260187,1,34,smartwatch
1422629500813,-0.36380918173681676,-8.33038386280078,6.2123527825720775,2.3159819141042886,35.452833611827025,1.8572052617539583,349.393038092739,53.542888220017716,1.4886541407767422,-0.07097637724748292,0.025200624628656354,0.23235320027581702,1,34,smartwatch
1422629500913,-0.2521761482099719,-8.343666309238609,5.806023611082948,3.5413178265908987,33.52271237327267,1.2799617181295821,348.25169035055427,51.03453868404615,-1.6669727324556805,-0.06234765073911559,-0.2840402267830623,-0.1009321975772022,1,34,smartwatch
1422629501013,0.48823014426408096,-8.56419694391827,6.067566229974376,5.805512120023458,33.33743378110675,2.8270060499386744,348.54516134798286,51.02025205978296,-0.6454329477297218,0.0227237088029916,-0.1254348938729011,-0.23124046328856063,1,34,smartwatch
1422629501113,-0.43779264853878863,-7.959963092013153,5.688017608456429,2.75234126741185,32.52269604784166,2.3676892164429795,356.446698511126,52.39762726455918,0.9049908384477057,-0.06802415909920145,0.20751864716050689,-0.2564351823680193,1,34,smartwatch
1422629501213,-0.11597748372644323,-7.993722912875421,5.752809586644034,2.6173287218813273,30.643541055129873,2.1291751574805486,344.34118168168953,52.26557634698719,-1.6617112778314413,-0.0724117670513621,0.14177060602957975,0.0032253162641171507,1,34,smartwatch
1422629501313,0.12965401613910177,-7.764713541472311,5.789368112383601,3.9821693381753924,33.07073638076601,0.4250747814474968,356.46038477907723,53.54635896798379,0.030796218060916036,0.09878752218130932,-0.1516852225261277,0.09626481712866347,1,34,smartwatch
1422629501413,0.45946687806064046,-8.905201097355729,6.183443510741388,3.272983890212049,35.710389732680326,2.302441502658796,346.13596192588625,54.73801508719963,-0.7085682840943255,0.010925237741198496,-0.19503636003107727,0.15855495611970155,1,34,smartwatch
1422629501513,-0.15568019240376751,-8.452991896049424,5.525581803671446,3.1367718891778043,35.96611581988953,1.8715080185090434,349.5932434411272,51.34633555930459,0.5214163889368186,0.03760737098204475,-0.14885436396017834,-0.09153158822421617,1,34,smartwatch
1422629501613,0.35549610460778747,-7.562073633826595,5.614343109701448,2.957888180644659,31.668194887749515,0.7800216151628917,348.8024532902974,51.75819227075297,-0.17122642206050864,-0.06790923811077779,-0.20958991639394953,0.16118173040681444,1,34,smartwatch
1422629501713,0.015503054104900493,-7.996296161830103,5.943882408417158,4.844489495390448,31.994035195574146,1.4109709924105562,348.7381118428572,52.609949985614776,-1.9604555445732261,0.05246790575670773,0.21871458090451207,0.16064945091799493,1,34,smartwatch
1422629501813,-0.24337878055491047,-8.457923124061834,6.07258052374407,5.243623523000446,31.46696360358547,1.6304279536499988,346.18923537492094,53.44496933724072,0.6645106270977608,-0.003222564803608982,0.15923318400233405,0.05179954080745808,1,34,smartwatch
1422629501913,-0.20962462448283292,-7.979356031351769,5.783805669036738,3.572026204313406,31.726411733708865,0.8993476916801948,348.2114466320148,53.88207822442497,-0.07737774085355253,-0.029394196538338968,0.0025400063538392192,-0.27390357561471224,1,34,smartwatch
1422629502013,0.22780118807118976,-8.326572076822465,5.9120290218809055,3.0305423596003527,32.638806933991034,1.960338801429512,352.980570050323,52.33758942204689,0.5891632751260358,0.05605412589399855,0.15254157326888912,-0.29135368335714223,1,34,smartwatch
1422629502113,0.31130240531877773,-7.563904032360966,5.810355980813583,2.9763308271241895,34.79372139979733,2.888059665046158,343.60797844396444,51.87731908690976,-0.8534698156255369,-0.007077321859186192,-0.23717013166169565,-0.07291718544079234,1,34,smartwatch
1422629502213,-0.11676611575921758,-8.51840854633295,5.750364385496714,4.728152269597483,31.710290855048793,1.20347989840621,344.6185227882829,50.685063657138244,0.2506679804829126,0.035733701989660804,0.00331871839361797,-0.2030464908041557,1,34,smartwatch
1422629502313,0.12850454841521586,-8.017356431175159,6.371722035528155,3.0629612431808035,35.10543355719391,1.4233233836159862,341.2540930779562,52.5876820028336,-1.3724027785033535,-0.02038448919442766,-0.14113870738948367,-0.20317834167676008,1,34,smartwatch
1422629502413,-0.013296955997234794,-8.63636712938152,5.952319116846147,2.9609792784879554,33.16462525501512,1.9752612345041436,343.7723202939582,51.483176795737656,0.3253201034846378,-0.028751091035654458,0.1179508759416722,0.09538272500007483,1,34,smartwatch
1422629502513,0.07189630063359798,-8.800072310882701,5.516758877097784,5.588509711795335,35.60125539447495,2.14926310302573,357.23939488503595,54.73405137930165,-0.5705898963671667,-0.09614357664121997,0.1358143517851308,-0.039429693271973265,1,34,smartwatch
1422629502613,0.095548578254251,-7.57846386657466,5.692628889217002,2.2562962259787787,35.74673893594467,1.3273376310524028,344.34636527654845,50.43499717596604,-1.104280147411874,0.052579378979896285,-0.029016229770536306,0.12271168293467322,1,34,smartwatch
1422629502713,-0.11081852328211728,-8.597723052598793,6.253988016043403,2.3218197200112005,30.259984229629215,1.0776120645587892,359.02529121139025,52.63702067332117,0.18065094998786302,0.03538309936146761,0.29744574400192975,0.2737020432163297,1,34,smartwatch
1422629502813,0.17480918150159597,-8.149537889684655,5.577576185970608,5.594467691541059,32.585735154557014,2.0225403711294323,343.53305815659564,50.12409814070501,-1.8871063715287417,-0.09684113396792807,-0.208177073537333,-0.19433353312402057,1,34,smartwatch
1422629502913,0.452828976862783,-8.947966013539475,6.3413144757039115,3.779863059961133,30.595737613803504,1.0781175777899321,343.36952709403937,51.58139988333961,0.09236182177230523,0.02751440290302737,0.2301688852774178,0.002106076665881196,1,34,smartwatch
1422629503013,0.11153472119454821,-7.826839500538268,6.370917382448238,5.6225743598423925,35.36041146821601,1.8854557599429869,345.5488518763899,51.623824086208586,-1.132724402541875,-0.06636770563710662,-0.2808641725422553,0.21740704395960347,1,34,smartwatch
1422629503113,-0.10641134872339664,-8.30757620917317,5.562159000995199,4.088869470914035,33.31278814259342,0.9921947636349646,340.52449170883045,50.41940442495176,0.3864661360820856,0.036783534115037125,-0.14549923515094002,-0.06472336510248561,1,34,smartwatch
1422629503213,0.23993728017387506,-7.908868456682307,5.564313039088716,2.7462855599202785,30.919546486776646,0.8754560560263311,345.8542794861955,54.087350356489324,-1.6304107609073055,0.06209384008252003,0.04281379457297452,0.04062202795099834,1,34,smartwatch
1422629503313,0.22351770276422844,-8.487228614101266,5.894554758445068,3.684882571579311,30.52434061146711,1.6793173877900363,359.3701735871721,50.59939485873075,-0.31702235747814234,-0.08988247461289361,0.0983241201253065,-0.13474641765972178,1,34,smartwatch
1422629503413,-0.018942351344194197,-7.9885124781921455,5.5112382848154615,4.267019232120941,35.91899250511946,2.742633924572174,345.7735108416179,51.3761357976222,0.7272970526947042,0.056070075480528336,-0.1981566062594613,-0.17950613527760922,1,34,smartwatch
1422629503513,0.43716683609229035,-8.53101614625228,6.294901022347435,4.5505392016798485,33.52164518552834,2.692418346970763,350.85172243532236,54.92490510086333,-1.1790096215385057,0.03547219719227554,-0.2285326262953133,-0.0901432879271476,1,34,smartwatch
1422629503613,0.3032478324752277,-7.669043501713492,5.958670074025221,5.783059438797574,30.317651631611106,2.508145951648164,355.17904038723844,51.65841726260879,-1.2461541623483994,0.013740332266231434,-0.2086000718993306,-0.19347363241648485,1,34,smartwatch
1422629503713,-0.021924511233094024,-8.601920767123287,6.307564589323522,3.020425341200367,31.446892831381952,0.9015556299569465,354.04852530319954,50.061689843427345,-0.8929559050418607,0.04311314890842638,-0.2791432210796182,-0.07840283299273668,1,34,smartwatch
1422629503813,-0.2912954841378721,-8.458969544227868,5.790836828139021,2.1469303159903195,33.48942822200095,2.0720439737683205,345.7169189712231,51.47792849685902,-1.7844754835403993,-0.008224535591860135,-0.012557817497649282,0.24306153989116736,1,34,smartwatch
1422629503913,0.29311251300281693,-7.9219236360998675,6.041723613139373,3.52760157471872,31.73593895651107,1.276175383146831,350.1291120569613,50.50385336803863,-0.8238201063308201,0.025623536164900707,0.08691204739548342,-0.29116732823208663,1,34,smartwatch
1422629504013,0.05285374106262952,-8.737719614116443,5.607993740939302,4.229460836984616,30.66783891440433,2.449224559532533,341.9229398629358,52.473956299602584,-1.6751900909040165,-0.033001058967637525,-0.21914504547166935,-0.10057944842837993,1,34,smartwatch
1422629504113,0.3863294978672469,-8.187918076545044,6.350370215839059,3.113648697268667,31.319252781520078,0.6522974816160709,348.433062722903,52.34903379965628,0.7195698450376113,0.0005516243170965857,-0.283068659766154,-0.28679419634112796,1,34,smartwatch
1422629504213,-0.010693957847232705,-8.353772660665442,6.396262154529985,3.9182198462460467,30.22135106675121,1.0676863112781818,355.89760627656864,53.41149620900089,-0.8478742230922598,0.07650045282575138,0.13339622185186156,-0.21239346028676998,1,34,smartwatch
1422629504313,-0.25013399143073267,-8.380339704313451,5.891220754768871,2.464206860925077,30.220000716288617,1.880499816722725,350.70023486847873,52.49478518547852,-0.8952606529640215,-0.0588679099438479,-0.17676002551155756,-0.1069192843745248,1,34,smartwatch
1422629504413,-0.42651928518633175,-8.344331108145884,6.358606966599393,2.8502823484203614,30.294703588079898,2.2328486126391214,342.06050320333605,50.235633444316186,0.04345813000770349,-0.04727052357624584,-0.05227624560105271,-0.11576809555726245,1,34,smartwatch
1422629504513,-0.2188087135262996,-7.670738773303792,5.718064017524438,4.908740569855657,32.19470020309033,2.5020601030471,347.177221405005,50.689290328810095,-1.726957675384428,-0.091980521902282,-0.2055855734759275,-0.028159821023880927,1,34,smartwatch
1422629504613,0.13431102174215515,-8.039664009706094,6.104888794588964,5.785299179834944,34.87164512110388,0.40438734783486613,354.2951749654743,53.398323307728845,0.029950710992580287,0.01177071715157059,0.19685410855760122,-0.2362622841495265,1,34,smartwatch
1422629504713,-0.28423485959237216,-8.782604456086629,6.3796291236865095,5.952056628111041,34.56907159027286,0.8015674484126598,342.4674978825885,52.091773379824524,-1.07496954273125,0.049520082961417244,-0.12764045570777457,0.20358557807001493,1,34,smartwatch
1422629504813,-0.09039368985300089,-8.189322216858367,6.376201103492121,3.2498831246382536,31.19360846574781,0.43798920614466746,345.0688305746425,54.93998926605084,-1.8140219118945513,0.053718705440268216,-0.09367951425494142,0.16541741600674237,1,34,smartwatch
1422629504913,0.4009858288170943,-8.816224981910393,5.741797811994038,3.5869636504779683,34.908246531233004,1.0959378743291324,354.46165997102463,51.26214898081873,1.7796081157419144,0.08701852842920832,-0.21911603468944146,-0.24796155427060268,1,34,smartwatch
1422629505013,-0.0360498715904527,-8.731864357723902,6.1773747574968265,5.169255959183969,31.302492321935823,0.838634841145967,349.18721785612945,50.82720804880872,-0.14224301029115338,-0.002474393288273216,0.018596106716249117,-0.27233623253220357,1,34,smartwatch
1422629505113,0.19009485866473141,-7.638454762160684,6.400484002866656,2.0679292224872694,34.44118906663791,1.0872926001205134,347.078694590387,50.712364798317886,1.1078538380468288,-0.02466977920505016,-0.07190647175535164,0.17423020978209053,1,34,smartwatch
1422629505213,0.19200930789065418,-8.623153921619496,5.5820827579179815,4.297682329245561,31.053925216283485,1.114640536601321,341.11880548815174,51.951601639020694,1.0053710178242832,-0.03860524823573641,0.2191052612468632,-0.24942787456675664,1,34,smartwatch
1422629505313,-0.14563406334928208,-8.905125639705695,6.1338749107491815,2.848227182187693,30.864690881166005,0.7113541187071948,346.7385775032666,54.629076468306685,-0.06972555711401363,-0.045399528595260114,0.0647638781008637,-0.08347176408961718,1,34,smartwatch
1422629505413,0.2843696652848342,-8.314680648300506,5.606407643236468,5.152645328670879,32.312806642518,1.3414947786931406,353.18837129419177,53.8509715064387,-1.2901799453165355,0.059192034118626946,0.03463563324336827,0.10953444876048679,1,34,smartwatch
1422629505513,-0.11988350863328723,-7.601156658520171,6.0298568073274845,2.86485471284895,33.00515418351617,1.171024404572804,349.9550861082029,51.60980101806462,-0.5860305720667567,-0.018662559299308976,-0.17791014086329748,0.13801565472114824,1,34,smartwatch
1422629505613,-0.1917759231881082,-8.405204792235597,5.702429172045234,5.664565211535669,32.569285853395,0.5725075238296424,353.38501294407774,54.59478909832216,-0.2790574336584579,0.07173403631485106,0.2996707678582134,0.14483907181332356,1,34,smartwatch
1422629505713,-0.12100392690201167,-7.8325120738890455,6.254672559626141,2.3220438444061484,33.82245801027923,0.814134726898766,345.11966731505646,50.495433862370966,0.39407057555178326,-0.05915961134531938,-0.022604695867544267,-0.16453815445005998,1,34,smartwatch
1422629505813,0.4631738576848907,-7.669665341862337,6.417723865442607,3.3862007146030435,35.06046359188065,2.9897123094535876,346.0992000865466,52.21664675260337,-0.027113604868695962,0.02584341992321834,0.22161317615278892,0.07797113257780586,1,34,smartwatch
1422629505913,0.412042242461541,-7.798858860368785,5.660277743622616,3.372168128581804,35.02082691557596,2.8450362918557714,346.27875694549624,53.383635864460075,1.4806771158594785,0.028919037478003617,-0.12264061084706415,0.26625341036068956,1,34,smartwatch
1422629506013,-0.25047442768133477,-8.087306138021802,6.204637662536916,2.1712569760020406,34.00479771209122,0.3801711554711064,358.513073853363,52.66873832443233,0.5923213706354877,0.060168512263267665,-0.18730863455653698,-0.1467599046486119,1,34,smartwatch
1422629506113,0.01279210440694567,-7.960756217261659,6.053513800658731,4.422904645018737,31.709058982147514,0.6885202012290823,354.85133402950765,54.05253241952087,-0.44006836350770584,0.0254630917646399,-0.1349549758653428,0.03176374415030636,1,34,smartwatch
1422629506213,-0.11524754336048837,-8.079689101181627,6.12596622083262,4.992565803060918,32.11158226325248,1.5112452309935016,341.82521281442126,51.94315065956278,0.3719849947580136,0.07356252094155566,0.19433116241694887,-0.23649660692239466,1,34,smartwatch
1422629506313,-0.24536299120733174,-8.080419569306862,5.7773337125031246,5.837339661684325,35.583226060465734,1.8229630929495795,355.17486578962746,50.06299684257138,0.8917800805053497,-0.0449831598148732,-0.1431769557340599,-0.12077870221280804,1,34,smartwatch
1422629506413,0.055164203911919785,-8.623660998591438,6.1213384759514256,3.785014498514781,34.49462463164638,0.7408892825938622,352.90672770972566,52.36684063883846,1.1457606456748586,-0.05748213563205887,-0.010705522440337456,-0.1589598324108629,1,34,smartwatch
1422629506513,-0.29339905615714756,-8.568057486513888,6.4063634600725194,4.384513865338398,31.234925365750552,2.264878060321485,358.5372549447849,52.34553917885761,0.7308913898874287,0.07592344355631059,0.17121828200821954,-0.12785255960698233,1,34,smartwatch
1422629506613,0.21657533235499327,-7.8349684365135275,5.848388218015636,5.428927201453076,31.11479290496034,1.6127446509467502,359.6111038692085,54.000449712383315,1.1935737545476792,-0.0511195153237247,0.2933914407858244,0.058484611096245864,1,34,smartwatch
1422629506713,-0.22211578837586676,-8.703971606987663,5.721942490784567,4.884944325115185,32.35553328108044,2.1286547337819584,344.21820552028527,52.106587795277065,-0.46906273221352723,-0.029737359925889315,-0.23833586082916683,-0.07503782877022283,1,34,smartwatch
1422629506813,-0.31333940053755915,-7.888157452227971,5.788468010579343,4.266563907217517,33.04602991563795,0.4609494179325099,346.7170117294469,54.01244281288511,-0.6383556533424404,-0.05930283012341902,0.1955939950236511,0.07205917056125444,1,34,smartwatch
1422629506913,0.07778531351004658,-8.68985106522304,6.390000442707171,4.449252459285683,31.07497377968742,0.9391254996160838,349.81017141597437,54.76611619039234,-0.4387745487619341,-0.030889105071887024,-0.14862896053464708,0.15090527601703535,1,34,smartwatch
1422629507013,0.24987349388578262,-8.392083380367898,5.65624402167227,5.581817517237524,30.12925775637014,0.4497825070111644,359.46793271576314,50.783972380414816,1.8101533860665024,0.04945114521653299,-0.21441549529911547,-0.23498621222182686,1,34,smartwatch
1422629507113,-0.13677063949727752,-8.833072204711979,6.1679988554854805,5.510686831253183,32.293080683533276,1.9677828243729545,349.6476207154214,52.339789964945204,-1.3901148667778807,0.07281766575902923,-0.11737682033090738,-0.10795280906359964,1,34,smartwatch
1422629507213,-0.060432795476717205,-7.6563357315590395,5.642312652191277,5.784554254696843,35.02223648387309,0.38029769173199396,353.63278610284374,53.005123918004465,0.38027213746523003,-0.04564983986493137,0.17705918247053393,0.1580961296220978,1,34,smartwatch
1422629507313,-0.1313634761375705,-8.000421528282477,6.184938907710338,4.117794571614201,35.28568487981554,1.8596842775357059,356.92585313249975,50.76336829777347,1.17724478360751,-0.007738542536017842,-0.2552913413930922,-0.16250624467195549,1,34,smartwatch
1422629507413,0.22850245031619398,-7.7896024346760235,5.580773541544274,4.418226566939463,35.87453668298296,0.4025499652223383,358.7343811597486,54.81049773427176,-1.4299500497352513,-0.09416843473032768,0.15860139043991878,0.20915760118954746,1,34,smartwatch
1422629507513,0.11243105238046014,-8.939678799199017,6.298023555950741,5.962096937103952,30.837327013926398,2.8042554627607923,346.0885283399188,50.79260743594498,-1.4827644709495815,-0.018301800524984715,0.12814129031349525,-0.1035474868540126,1,34,smartwatch
1422629507613,0.3659607670189684,-8.709118227811134,6.494550021682198,3.5498973354255776,34.79999201079826,0.5968121147518222,351.52713849307725,51.7275254541407,-0.4351841537649359,-0.05423008414985793,-0.1524031496873242,-0.06544171812614202,1,34,smartwatch
1422629507713,-0.24239148674931854,-8.671838323236544,6.342173220328851,2.1611064028934486,31.990690038379633,1.4715285701594063,350.1490608348155,50.124214655182556,1.1084882869402288,0.0072925840977469125,0.1502206815162267,-0.06524939346464592,1,34,smartwatch
1422629507813,0.46286955698842736,-8.340500191576112,6.22961341318685,4.518016492228789,33.92266499429582,1.3698484474132566,348.20294838713505,54.6499804332622,1.1327019475663151,0.0922121284252995,0.25713937915794743,0.005106485398846339,1,34,smartwatch
1422629507913,-0.44364726005251043,-8.271994591744681,5.746867370729121,5.974483551019622,35.813776187121334,2.4000302061656393,348.7409013731183,52.53199833530167,-1.8995704298499363,0.0853281346413653,0.24306986180722406,0.037058346535387476,1,34,smartwatch
1422629508013,0.09106472120109632,-8.095755065050021,5.958473953946583,3.88845574060357,34.893722042821764,1.298055943836103,350.7294246223725,54.80891547476395,0.883223681164222,-0.08497239972684179,0.2019016772877647,-0.09351623892268549,1,34,smartwatch
1422629508113,0.3661076268576635,-8.50804791267809,6.410987675448512,4.506805417153184,33.30000352545356,2.554698636516929,343.95276521702016,54.41918326935436,1.1082356523028833,0.09504937857508358,-0.1556048808414721,-0.26928140346328105,1,34,smartwatch
1422629508213,0.4634722443531377,-8.457245511032413,5.664418234980567,3.2058543775561343,30.96090748500933,2.4463651055406697,342.4819562136194,51.1484739939734,1.4219021532332836,-0.01778409037452433,-0.08479046044833552,-0.0679819905399685,1,34,smartwatch
1422629508313,0.0846662027052627,-8.804139003621325,6.178268935158958,3.133222338323652,32.22960829232861,2.929093476859738,359.6702674493233,50.381353256311264,0.895411468029633,-0.08720822057975304,0.23480945968336236,-0.27595411049090285,1,34,smartwatch
1422629508413,-0.41762021697046425,-8.127203413596972,5.893394680293973,5.149697702230933,33.123414970799004,1.071715807332519,354.2709883159393,50.655597771940755,-1.616008591017133,0.01532378007377859,-0.13289003137856556,-0.12933322346178663,1,34,smartwatch
1422629508513,0.07204482699420334,-8.813272158677194,5.940402004117951,4.230128250901064,31.518112647797917,2.4328981818617215,358.790661155006,54.90650149551956,-0.7680117551022447,0.07098875098804067,0.09927565505145886,-0.14046188907314408,1,34,smartwatch
1422629508613,0.321219789923224,-7.766453661282764,5.575967871995048,3.2846523711292286,35.77845802951791,2.1780904968936925,346.2256621614757,52.10099722995496,-1.02527147110679,-0.09085890656915113,-0.004387395562734708,0.19982550110595787,1,34,smartwatch
1422629508713,-0.2931968627663796,-8.89200859930781,6.0189929684843,5.114286929683548,32.86699447082514,1.0210055385089927,341.93259268027117,52.91393670908313,0.7795699035501622,-0.05791030428803001,-0.2860969426468931,0.2528303155509977,1,34,smartwatch
1422629508813,-0.1459804794078,-8.18054371488276,5.689183095379083,3.4248610315148347,32.442462588824625,2.6542762748957873,352.84513266528865,52.47877757757208,-0.8904825672819632,-0.07144967459582113,0.11569857201714956,0.1415837706437152,1,34,smartwatch
1422629508913,-0.2150791543017646,-7.94916172276523,5.821623830475247,2.0702492795970513,33.97866487565119,2.4109754453297456,344.5256205630722,50.51046786182727,0.5295506494819731,0.04530166554100534,-0.23262441745715456,-0.26534117457142387,1,34,smartwatch
1422629509013,-0.28933677707971384,-8.246625135627758,6.045285943071274,3.903300727328143,35.69047561524774,1.3920781090098773,355.5604612500444,53.673149445423704,-1.2138063590945607,-0.06486877284302908,0.08322766673886384,0.09631403601375421,1,34,smartwatch
1422629509113,-0.023062095236180302,-8.659559946561398,6.36661803796959,2.4365459532711116,35.18281832028601,0.8065935561102968,358.579345468983,53.66593043815703,1.7412158472378882,0.005189587116195146,0.1787148552915751,0.0708725636314943,1,34,smartwatch
1422629509213,-0.053793825992082156,-7.961112350251858,6.499434786719228,5.080927116700739,30.65832716704022,1.5999230791097214,348.03740248598217,51.52574102702595,1.109207647434984,-0.09277872838000017,0.027334004956304225,0.2425543725286144,1,34,smartwatch
1422629509313,0.2439555366984395,-8.193047332792666,5.815801244755265,4.3563784148516564,34.0752291637056,0.6862869679993796,351.1668807678751,51.77650397199444,0.40508982117409165,-0.03901071224203439,0.2538826006190052,0.17593948552435457,1,34,smartwatch
1422629509413,0.2685747850902285,-7.57375432014911,6.221843356041193,3.0306477583069853,30.613867351704123,2.152543876241905,344.29290882057245,50.75139601294027,-0.29668354999067637,0.010479625731412368,0.056095112050010776,-0.27773766812400685,1,34,smartwatch
1422629509513,0.09732276973134513,-7.710014820775715,5.507315557423682,5.067435761153742,33.08492841566844,0.9458697340476447,349.8777651616678,54.741308789122755,0.326099357773983,0.003666414839820664,-0.01282711146416915,0.017188352212491542,1,34,smartwatch
1422629509613,-0.29722780493949064,-8.949892594983936,5.629418710496173,5.148010011551501,35.43151965056456,0.35571080786104003,357.0348078517234,51.8663468003108,0.7359424570732349,-0.00781175338596693,-0.20345469765952967,0.044529963323422184,1,34,smartwatch
1422629509713,-0.33395826370849147,-8.433497764530479,6.413590483032201,5.643363159580039,35.4691535290625,0.5260431693951264,352.04332860873166,54.97446226857981,-1.1924584017592124,0.04001553787538295,-0.17208533164652123,-0.10708511062701856,1,34,smartwatch
1422629509813,0.08281849353495918,-8.830266727937452,6.090716586866983,5.442131143123211,32.77704550793075,0.7053492011385727,349.3964062885465,54.71961228094192,-0.9855706673071354,0.035082590704745564,-0.2753760594313911,-0.14877134481921925,1,34,smartwatch
1422629509913,-0.11253880973029706,-8.74512726639093,6.366361145408265,5.302882410157948,31.393765967710948,1.8759309874836585,343.7806745171494,50.03516411925724,-1.9991744013209551,0.015641886243763586,-0.10825236081634149,0.12557699832158398,1,34,smartwatch
1422629510013,0.2035300315572982,-8.459182125442933,6.338423516884939,5.986243743110562,34.00933694379775,1.6628834093409386,350.3200736795931,50.69363780663927,-0.3613079099709351,-0.007182548372775682,0.006801016249822822,0.2252069204102512,1,34,smartwatch
1422629510113,-0.3520645330599045,-8.19780385308929,5.976838088705892,5.226371062134717,31.551565616280815,0.9780862093901015,356.4442864338282,51.0433838838962,1.2883257071943857,0.0219133446177652,0.04476708206186486,0.17619733122555215,1,34,smartwatch
1422629510213,0.25916622194372063,-8.570137786958522,5.8692654969739015,3.066739519152331,32.347963152801114,0.3687734149193311,357.7432323248573,53.67408381551545,-0.3633854796167659,0.06819965511859857,-0.05926337661060438,0.22648206557962108,1,34,smartwatch
1422629510313,-0.1953845099170739,-8.048974114951728,5.893226611832611,5.205470863409425,31.776526255399897,1.4653310428248307,351.23648875257106,52.08477319336597,1.8345999696644388,-0.08864012863603002,-0.035909484986896056,-0.05433769911550396,1,34,smartwatch
1422629510413,0.29182572806947216,-7.878300146387756,6.469030713600271,2.8809591438747257,32.0023601125305,1.652677391734067,348.2621905973193,51.186376735450025,-0.5451287628061463,-0.06555025011999174,0.007189916185554424,-0.05611360442155339,1,34,smartwatch
1422629510513,-0.19636459111704763,-8.158489794318367,6.153382241523013,4.331349220840322,34.14844881917421,0.8449049320147621,351.1254181314083,52.71945502030091,0.17307901837078532,0.05327534759486158,-0.2722958809598482,-0.18922803452133452,1,34,smartwatch
1422629510613,-0.16908689836805268,-7.538811925121833,6.210274631681231,2.0092271588680313,35.94132703899982,2.688671015608959,348.31526734961693,54.23177732710387,0.8414784892856866,-0.06338922904557437,-0.06364570993852178,-0.19108593146066183,1,34,smartwatch
1422629510713,0.2580916542485062,-8.299765616594762,5.964309805034045,2.250594346376337,35.964131662847024,0.4163320631965257,354.8089037602328,52.076864012618245,0.4651956642739288,-0.0893787191508671,0.23001119839911183,0.19289797685353,1,34,smartwatch
1422629510813,0.22058082622902042,-8.349909014875127,5.541358285247227,5.6266274526153985,33.67479542048598,2.2505289427317035,341.78142589293043,54.18173357888948,-0.05357379762512471,0.09564465694109434,-0.26435710515539523,0.051185447101432135,1,34,smartwatch
1422629510913,0.30482759427803785,-8.876057504793526,5.634592778130676,5.590926178295385,33.87489015624239,0.37150998208995467,345.34476746742723,50.411409205725775,-0.35934572205611914,-0.0630738227101878,0.15542986567330297,-0.22724177506960572,1,34,smartwatch
1422629511013,-0.47960950988541495,-8.260232495424315,5.627673767989066,5.414673599456732,30.727166395425332,2.1307976255356005,354.0027703254185,50.646100819306234,-1.881718196560486,0.036352246176360625,0.13450557689238313,-0.2506467857027801,1,34,smartwatch
1422629511113,-0.47450734078915613,-8.65782341905109,6.155346965273732,2.5882594103728667,34.252327080150295,1.404718929549918,345.13368894999877,53.36428313136213,-0.12410782590375913,0.09463908661109185,0.03937289575238878,0.13662331423824325,1,34,smartwatch
1422629511213,-0.3704309562047966,-8.238796951586545,5.556014053259142,4.271629219088111,34.62332092553349,2.0846710952794933,342.37063543527455,52.8401215939285,1.993581147295492,0.09623456879476219,0.1455657780847237,-0.1448847324600606,1,34,smartwatch
1422629511313,0.13654506783448006,-8.502226608332293,5.8132492478281454,4.527581727871333,30.446771632804793,0.7899136263751223,352.71020383401014,51.528155153483304,-1.6753397343438547,-0.002543789712732794,0.2943888819759349,0.20309806214320275,1,34,smartwatch
1422629511413,0.1792662585810274,-8.31707643678234,5.933474064295656,2.6031393992709124,31.16181729263351,1.1656896002292767,356.67535389773053,52.478300370234344,-0.3817002425748681,0.013064928010964677,-0.03060139306059273,-0.12106170761881593,1,34,smartwatch
1422629511513,-0.4607408911899792,-8.538920404764967,6.409310508935582,2.667718174240904,34.65618921325734,1.267945405618993,342.0345780706667,52.47825153902996,0.31138452028948294,0.0672270731840949,0.2842014733597655,-0.17704581091352123,1,34,smartwatch
1422629511613,0.014741609367547315,-8.864755576031623,5.7277850469374965,5.2905681060815635,31.502231084404148,1.1144620772165026,342.8606766073706,50.2746638343086,0.903582862694293,0.05434410827275474,-0.010478434282059634,-0.2057023591878775,1,34,smartwatch
1422629511713,0.02934267426695869,-8.160988856490764,5.972394944599921,5.276315482767068,35.44120053182839,0.3293164872091766,352.2390423664781,54.19120062261538,-0.0864510562377041,0.006668903778047491,0.10654290062163468,0.278341362624069,1,34,smartwatch
1422629511813,-0.28415996306369284,-8.844456765063802,5.849974429109382,5.06155258936189,31.2409704688009,1.1725749242372185,343.35452200932235,53.95016503547911,0.16044813468092434,-0.08837204468527922,0.25413904171459417,-0.24472329972486975,1,34,smartwatch
1422629511913,-0.10239336372121699,-7.6133334753029835,6.304401084654911,4.620533976241687,30.616844642883414,2.430019728918537,356.812820651056,50.531038339759604,-1.384094041713483,0.07104900736811687,0.07153914968726138,0.11284410437216158,1,34,smartwatch
1422629512013,0.442122229233043,-8.919055654286332,5.557417177629085,5.407009256851138,32.63478205807547,2.8861121223110553,355.63172387523997,52.47856450034022,1.1264784750335295,-0.03990890566111525,0.043273500809721255,-0.04532611358131988,1,34,smartwatch
1422629512113,-0.4077332950125342,-7.632698229451895,5.791496646123341,5.877113292229211,34.790999719847264,1.7619262412870855,358.89501017526317,53.65571314140221,1.1768177901926045,-0.09575141044210525,0.22968979087338964,0.25527448849892503,1,34,smartwatch
1422629512213,0.3531706828833746,-7.699748001915119,5.754048484967668,2.3548598149072775,35.42061081565073,1.9773464281626727,352.99759553037586,53.28475007965285,-0.8839942273897039,0.09835925153350702,-0.21327575604938903,0.10624210053634331,1,34,smartwatch
1422629512313,-0.25674854357642063,-8.843881118133483,5.550245625460191,4.941533330000965,34.65611912637302,1.9557007901609216,344.84843956953245,50.9535848398471,-1.2720783745058641,0.021983373865369554,0.28683412469532305,0.13246002604747842,1,34,smartwatch
1422629512413,0.26442451008549483,-8.959800242507068,6.162415495651273,3.5028809576304303,30.817707452550444,1.3707799888377195,350.92537973930666,53.32994228718743,0.6642218542614464,0.0685946110573167,-0.16483136524771191,0.0941861652023685,1,34,smartwatch
1422629512513,-0.06955813384407084,-8.173356423489542,6.110076691793321,5.569570895137689,31.746197768631518,0.5116297307166657,358.53332116492044,53.63061681903889,-1.8730244813722448,-0.0937684744816642,-0.03206215847719163,-0.08911311225024643,1,34,smartwatch
1422629512613,0.28799605433341335,-8.755771801566091,6.073259094293884,5.959109205604725,31.226385845102214,1.776424230167147,355.122574605146,50.44189983308218,-0.4759317763235065,-0.020393360839531333,0.27873439071424394,0.046652269810287805,1,34,smartwatch
1422629512713,0.34942016885157035,-7.543297465382888,5.960906770376344,3.51759818755073,33.36379450306572,2.7116145104697167,358.6114354426056,51.92261796722072,0.9758890951619374,-0.08837375500489886,-0.06811279228002257,-0.2372612457517796,1,34,smartwatch
1422629512813,-0.11824356939990655,-7.971103524109797,6.064686354159861,4.182407889836467,32.66664785885408,1.4816502340401037,346.6068217070305,54.36904732010761,-0.4541140171089957,0.08632551240570566,0.13554008539656126,-0.23084644718188846,1,34,smartwatch
1422629512913,0.37802058593057186,-8.910093807425836,5.987374265274721,5.067615427545466,35.41948049489681,0.6804382886017086,350.62268065842386,54.85380903819879,0.6251092973960053,0.07269447703053528,-0.1265311873821479,0.10176744730230247,1,34,smartwatch
1422629513013,0.40155003878412765,-8.378703588560294,5.502744309384831,2.5654922891600394,30.35287031134136,2.0089596502784994,347.2417301826899,50.513883355363156,-1.5204650203813985,0.0926301775208882,-0.13685325472262813,0.023000408885700763,1,34,smartwatch
1422629513113,-0.12624624891630287,-7.883475884958909,6.047869910845355,5.684058791857648,35.463669895852775,0.8922469691909423,346.79798669279097,52.188071827814305,-0.09011667379444122,0.004552554009450205,-0.18427028573810886,-0.10168158241846931,1,34,smartwatch
1422629513213,-0.08535750464493719,-8.751837492251912,5.935089342146663,3.7991777822438038,31.952335787178967,2.1314696611710664,345.38027932622634,51.51152563772367,1.2916162897539922,-0.09211509214550682,-0.12747404866027437,0.18984036151352274,1,34,smartwatch
1422629513313,-0.45707624302124195,-8.640188841664854,6.253958621984872,3.042929873776053,31.79976730692441,1.313846599085484,342.70517639596676,50.13093011531427,1.7972240564245578,0.08858833008724454,-0.13476495012790551,0.21813425531957303,1,34,smartwatch
1422629513413,-0.4887110557271963,-7.82314496495758,5.880521771589117,5.59954690000039,32.45893755920655,0.4674317930102404,348.4275628212547,51.54920935396486,1.980581922263751,0.09965075263225365,0.24486148782225664,0.1650665013314781,1,34,smartwatch
1422629513513,0.2972070669706447,-8.501963263521855,5.828032849797805,3.8753249765374513,31.165227557938067,0.3072492529834302,352.22592064495325,52.99334315928027,0.4216027010117336,-0.035027382665129975,0.029511456637995093,-0.2527264291818882,1,34,smartwatch
1422629513613,0.462031582159552,-8.345260316172107,6.490551956392118,2.530536939428158,34.8308109016772,1.1287136326948861,347.0099725110072,50.699352280731205,1.2326849260622548,0.01848669672125787,-0.056062960874598444,0.017016054384949797,1,34,smartwatch
1422629513713,-0.10113356142301655,-7.966150339551816,5.571190225429417,5.515361857769456,34.58358255091158,2.866533518703708,345.9021476723462,51.165187811732345,1.9129736763814345,0.07271542867800171,-0.09375345825443121,0.2097037774465597,1,34,smartwatch
1422629513813,-0.23257816270994336,-8.916466605701023,5.505223700281312,2.6923408878258583,33.354542074882986,1.1857395342738781,351.78383730093157,53.44221198804414,1.8858407426555286,-0.03396610982036384,-0.16059038150737331,0.2238798006268265,1,34,smartwatch
1422629513913,0.1151378101193351,-8.248326045195324,6.014482527850481,4.335062794544072,35.62045085860815,0.5325613314911499,355.7723477720738,51.06659133743542,-0.4055457768657793,-0.03157105905029488,0.2634654402940109,-0.14541227353487488,1,34,smartwatch
1422629514013,0.15195289233515719,-8.366974049117204,6.305343255400184,3.729936702425749,34.37688397799903,1.8255791526702958,347.9601847525757,52.035603162933036,-0.9874629493708813,0.017843020386602015,-0.13791895313809668,0.18408053651912948,1,34,smartwatch
1422629514113,0.09340358753947309,-8.416752391854354,5.82024670188654,5.321774125855598,30.358108905892948,1.624736430765091,343.7124459219911,51.421258413155684,-1.0517289357298925,-0.044615156188980244,-0.19724858556850586,-0.00968254157312154,1,34,smartwatch
1422629514213,-0.2600522187226949,-8.037587621305969,6.407039209536034,4.93609542888198,32.475789383748754,0.4586106365868897,357.97143700397953,52.48614416489032,-0.9920790538896336,-0.07648631367707077,-0.17012474960525367,0.09204665247029836,1,34,smartwatch
1422629514313,0.14517812591157375,-7.848456610966587,5.91490814422916,4.48769604586472,30.79607581641968,0.9382012831791202,358.637540571872,53.55224762493587,1.264278777496917,-0.036849919988698826,-0.2821746609589996,0.08159366514340277,1,34,smartwatch
1422629514413,0.22824853439652182,-8.621836083739232,6.100108228886668,4.273142983557388,35.707151828840125,1.7153955567810835,345.3273957074235,54.97908812959199,-0.4668197602215254,0.07762956803242838,0.12586536777535967,0.17231578847601092,1,34,smartwatch
1422629514513,0.06293922245820804,-8.843527127995795,6.1497035445638595,5.479620543545247,32.214852372613166,1.9273511816136875,351.91231489088807,50.461475836117394,-0.3979531304166479,-0.044373511652559455,-0.08087037136503727,-0.11607799187632564,1,34,smartwatch
1422629514613,-0.4229572583549418,-7.750971357541005,6.438189703301606,4.998415507920584,34.11121856354473,0.40299829489867456,357.0490040049315,51.29835626735042,-1.205351381245526,0.014336962411600346,0.1514232185121276,-0.025531652149665574,1,34,smartwatch
1422629514713,0.44354486013824224,-7.643284614583648,6.040689773166559,2.169205327588883,32.671102439222594,1.6870808195181006,344.0309964788775,50.1153329840256,-0.055400756726767586,0.09257091312326157,0.23493405490120362,0.010725966308135493,1,34,smartwatch
1422629514813,-0.36941463862851764,-8.98509658265306,6.496681089937291,3.4583371398419978,30.35185493223841,1.3203539594648932,340.3212943613178,54.10499427727558,1.7773662862347148,-0.02192624975712258,0.09819512279208886,0.07130152536874607,1,34,smartwatch
1422629514913,-0.41388050242442465,-7.969513599886207,5.597045701528021,3.303110072001934,33.631404120849034,1.2425767754270205,341.03203479824157,52.31129495163691,-0.10829399793210204,0.04462356497125061,-0.0291852887134319,0.28862315496466134,1,34,smartwatch
1422629515013,-0.19316146182943983,-7.598872701562487,5.937866960825064,4.362895047138496,35.60058935133593,1.0677973872847009,355.4573055665524,52.57191789634362,-0.6062154924395866,0.08365888112981731,0.20592579998998023,-0.20550474020640902,1,34,smartwatch
1422629515113,-0.2751835950956757,-7.903484112963174,6.193100530340445,3.7233451692003,30.730664305065982,2.5584853184623415,356.3047838125427,52.731333534071474,0.03936394916654207,0.027744981408394376,0.26251043275413694,0.2630204601772496,1,34,smartwatch
1422629515213,-0.0017623624225403534,-8.553373997540518,5.827780260547355,4.334704552960581,34.46365263537887,0.4606622213154279,359.392510431707,53.886714468387005,0.13483373931871645,0.023241589272093452,0.18354394177273564,0.19204237175084732,1,34,smartwatch
1422629515313,0.4116099985751772,-8.736092660305589,6.470352852521731,5.724688673893915,34.058175995967886,1.0119686961390955,347.48142664778584,52.490986558501,0.6649460950358903,0.08543177712586755,-0.15477573207794437,-0.17045263528123678,1,34,smartwatch
1422629515413,0.15933662182260433,-7.670905820273539,6.179229633498361,2.7584922920505908,34.417149006480635,0.7944413009147078,358.52193935114246,51.137844575866616,-1.5218624453628018,0.0344806526118861,0.05055419591955712,-0.12690481600191975,1,34,smartwatch
1422629515513,0.07261764417492822,-8.416617237157263,6.1749330071329025,2.4003135656988377,33.56367779852574,1.5356285452438485,358.1679693830461,51.709707610476094,-1.149687667037251,-0.011925952935789824,-0.025205783995749687,-0.22811926521307122,1,34,smartwatch
1422629515613,-0.3756813192438152,-8.516429714984024,5.718425117126806,2.3798256455142086,32.40405938434218,2.3295907267401907,346.247129980447,52.2962753448087,-1.4853192789370895,0.06296654406032118,0.27293263629407233,-0.08396430742002481,1,34,smartwatch
1422629515713,0.22368767635737397,-8.530241888514283,5.623557661199734,4.9255570011501675,32.54570526750277,1.369931414335315,343.3429687526638,54.90182620581102,1.8656047057567569,-0.004313119050884495,0.12933324091831822,0.2714035717672509,1,34,smartwatch
1422629515813,0.18845968476275232,-7.512587353475446,5.647289334872556,5.056646382056531,31.3226909478989,2.843726369093026,357.36795137511086,54.416181916618335,-1.3167316597010617,0.06346557066548938,-0.08910538986547004,-0.12957573801996128,1,34,smartwatch
1422629515913,0.14903672228993892,-7.982963604631195,6.325890777581702,2.994386395923942,32.72019361289101,0.8847901425327191,351.56954821181347,52.610833005394376,0.6740484173440437,0.07041696107899192,0.033472919216516905,0.05721781227914169,1,34,smartwatch
1422629516013,0.27765546785946216,-8.092957733718828,6.096123076286972,3.5537854216558764,30.79276299044143,2.830193500486726,356.39564270517116,53.9748264902134,-1.4633507123778267,0.012296519841903275,-0.028934369567284346,-0.20260412324054095,1,34,smartwatch
1422629516113,-0.1190786046896053,-8.672049120248708,5.632834351163676,4.484138054809861,32.85661431486236,2.7445878497327025,348.94391892924784,51.69811326380354,-0.1570565205447889,0.07843838414364909,0.0948873012200177,-0.0393513709899353,1,34,smartwatch
1422629516213,-0.41653926016228626,-7.738951712230763,6.021522241683959,3.9006944283555516,31.01252822977094,2.256412345932756,350.23335977403144,51.423025775022786,-0.13808258727465805,-0.030199785907064583,0.16073746514007659,-0.1456169154055133,1,34,smartwatch
1422629516313,-0.0003538343081438411,-7.92122778249698,5.957188526183671,2.806244294136205,34.89588237919418,0.6791333808350957,347.39151820719667,53.395629219872625,0.02975145952457492,0.020531305775783104,-0.06319239827314743,-0.013288881273742115,1,34,smartwatch
1422629516413,-0.2701342939404011,-7.713088531538295,6.4420815677106535,5.951771983070825,31.34630711522716,1.6090744879249463,358.52138318139265,50.879634104595524,0.8943043117709868,0.030444425229625344,0.1966475039905085,-0.14383028285741242,1,34,smartwatch
1422629516513,0.23369183310820618,-7.86079451137291,6.370452535160901,4.786590843562873,30.737047569495694,2.652359030953326,340.5071007210701,50.15040366986926,-0.5235887190617725,0.09852948682445606,0.02172190432801613,0.0647731823494832,1,34,smartwatch
1422629516613,0.46524892275410656,-8.700232859532873,5.7689536322937744,2.112152243636483,30.35447154849264,1.0208397595617125,358.41169685290754,53.78377752568785,1.6072530773267135,-0.03407183877267002,-0.2567451502295235,-0.12922070581531162,1,34,smartwatch
1422629516713,-0.3370085193582941,-8.84256417722013,5.948986238105917,4.577704101143022,32.816788652199115,2.62842137927499,351.93398665836827,53.65699745361142,0.04316064512177764,-0.011696028070298375,0.01741956713188375,-0.19279508048913946,1,34,smartwatch
1422629516813,-0.44303668242712124,-7.513907874530246,5.853871604716591,2.9953578275183212,31.801216981705004,0.9451893090415624,349.3773885942229,51.10621582665342,-1.7935480914820658,0.05949559352541345,-0.02284619358297524,-0.09165219450286824,1,34,smartwatch
1422629516913,0.3077746768292664,-8.64205886453026,5.6488346240679475,3.02451406511283,34.92992937741451,2.3692171092376104,353.3590199521643,53.9309781419656,-0.3878248793874284,0.06445484378673824,-0.13279766690011427,0.09774392986888575,1,34,smartwatch
1422629517013,0.16133433470403014,-7.9231514751372645,5.571164211692562,5.023974957033577,30.386818226864413,1.9173512184334949,349.70463166657805,51.66553412332768,-1.0451481818095871,-0.061542583698279765,-0.06948323893514396,0.06524533345287636,1,34,smartwatch
1422629517113,-0.11980891423810802,-8.619136534305909,5.8860030157172964,3.394526964060535,33.097031508799205,1.114215057937457,352.791654292117,50.12782661487476,0.3126097496381992,0.015398518335555805,-0.036498607101008496,0.07126821123384952,1,34,smartwatch
1422629517213,0.4966170395009657,-7.716740460374673,6.401184764838886,2.5685147979839464,31.070496351522735,0.5249828502801893,347.87574836535333,53.41336256166692,0.46000435561796094,0.027073937866782832,-0.24819895200072772,0.0532761931766208,1,34,smartwatch
1422629517313,-0.40158550565212814,-7.805985128872668,6.484450616675258,5.810734681014826,35.04122436843337,0.6843869123401818,357.1287083981661,53.193610185451895,-0.23303625641479764,0.09967360655280949,-0.11512781867847383,-0.24475098128538236,1,34,smartwatch
1422629517413,0.4087018589565943,-8.450480479882621,5.954249039141413,3.427449951259181,31.32030690984057,2.5190542569593126,340.6680350308202,50.351847120228285,0.8999933496388248,-0.02165333471195323,0.1086656856560616,-0.2015242693190173,1,34,smartwatch
1422629517513,-0.3903700118728638,-8.112140986823528,6.380969376572058,3.6454888223185837,30.652024189605985,2.6417353273499997,349.1225012343493,51.067468617679324,0.05402289090119172,0.09104533731806908,-0.051017240614276066,0.15485933096905213,1,34,smartwatch
1422629517613,-0.12959640083496948,-7.885400208977664,6.246189196365227,5.881799228957906,31.41684060076138,2.130162293457938,356.4423297808484,52.778775030738785,0.9874775737926065,-0.09638959374719364,-0.02932351001903921,0.03661638263514211,1,34,smartwatch
1422629517713,-0.245955538722321,-8.476967119961365,5.894913355060333,3.979481303918854,34.44898042828801,0.45633041710705924,344.7321946018844,51.670828859064336,0.5970373330233767,0.005326175278656559,0.24723554725672942,0.15740477417631543,1,34,smartwatch
1422629517813,0.03275279302547296,-8.43305051911149,6.14183365510111,4.143338480873008,34.4007446363328,2.1277296050347116,359.18447466497446,53.39016130560642,-0.7139595591250814,-0.017500791973172378,-0.23202279526267117,0.2575241162546614,1,34,smartwatch
1422629517913,-0.19726999537715706,-8.073137346821966,5.769275068778224,5.172562468760351,30.855595566538256,1.9053751067451994,340.38464376495733,54.566700142573744,1.545542234496951,0.05613316485000039,-0.06686301248202167,0.07899171153812673,1,34,smartwatch
1422629518013,-0.032047830096290864,-7.682097530541635,5.539486132108049,5.7472873336318315,32.42509163463962,2.3614449917049454,342.5362060029051,51.45004202721937,0.49444530929083763,0.05476228521376986,0.05942437887485269,-0.050726586011474534,1,34,smartwatch
1422629518113,0.130258217637246,-8.175177038940422,5.500825367676423,2.67785876075626,34.18568985127955,1.3625061061113635,357.46200130294164,54.61465698339926,-0.8943745505683793,-0.05233412972993719,0.22892897182990085,-0.18654353756507658,1,34,smartwatch
1422629518213,0.4670776675134617,-7.6179478497538025,5.978020040094657,3.623882444122826,31.080459514564417,2.959092242798454,344.598210900539,54.207593661750934,-0.7162715685611278,-0.0754248252246798,0.2843447875823147,-0.12256269765191893,1,34,smartwatch
1422629518313,0.00017474054470045797,-7.932808590041141,6.18052533674714,2.1624890036074005,30.122084751501816,2.9340171630004006,357.3325993195501,50.25391447297039,1.410228595717534,-0.018409861361005572,0.2542807049757934,0.28742189525649603,1,34,smartwatch
1422629518413,-0.15215159034082815,-8.112558975417265,5.9799501586211,3.790019618178067,33.78517251433823,2.905809552763336,357.2801494752107,50.9947203461097,1.968268621029945,-0.0017471416560803227,-0.1894917842099929,-0.09825450561792926,1,34,smartwatch
1422629518513,0.38327624768032276,-7.667768419695909,6.144575353443431,2.762107088084598,33.90888965657458,2.3427827931339067,344.7106173398338,53.8843977640817,1.853012566237601,-0.03072870515164146,0.20128157417943432,0.059956425701088,1,34,smartwatch
1422629518613,-0.18585501324258724,-8.707741822567291,5.6000829600035775,4.049782843037414,30.965161372348987,2.175154148016328,358.2180252395648,53.09832036131979,0.3834343320844593,-0.030953685818501067,0.28642718805108086,0.18542351681631214,1,34,smartwatch
1422629518713,-0.10158799446019662,-7.598938574861399,5.555769016144051,2.6921999319226666,34.705505089702676,2.073474846505696,340.1449513447191,50.22450589325315,-0.27530231648612213,0.09249840957571379,0.19798399301504105,-0.03939650807619122,1,34,smartwatch
1422629518813,-0.22380236891387784,-8.50693861134097,6.484841171840235,5.490355359509618,31.96501312624875,1.359039840360037,356.7481760633472,51.168975523727916,-0.10006306402539122,-0.09794774490303496,-0.08273690043251039,-0.04140598501717052,1,34,smartwatch
1422629518913,-0.4515613787714229,-7.619079248403166,6.343157396154399,2.6985106462814428,30.671260507640667,1.1078436759236154,359.9031830339752,54.18183778089067,-1.666152976564141,0.09146677891997548,-0.2743364984325877,0.28568768437990194,1,34,smartwatch
1422629519013,0.07048663259859667,-7.665688628872705,5.561137107670036,3.0846617153273037,32.77277503006335,1.8761150918901717,341.6079950720776,53.183363817070166,0.6356926923836252,-0.09266145481996105,-0.14076012275172506,-0.1889531271046644,1,34,smartwatch
1422629519113,-0.39348032534973854,-8.271762003919251,5.504504009795308,4.338413572784615,33.846056599115286,0.9769217359994882,357.5507874215147,51.5888697006542,0.17295816081928983,0.02960967986191193,0.2331198293021109,-0.18605402772552665,1,34,smartwatch
1422629519213,0.08363394458539197,-8.59150546878245,5.6149437052015845,4.771838215151704,32.546903926265635,1.8947074566146695,350.999537440766,50.56443712621332,-1.6231026603078518,0.0070622136502751925,-0.04822229412950785,-0.2046718675957066,1,34,smartwatch
1422629519313,-0.4724981512420825,-8.52315278625278,6.3331660374368255,2.3261853375762325,33.15983412628145,0.8174240606694461,353.85990320180963,50.63881111762627,0.7457046990216862,0.08303518070897317,0.18997424555993864,0.26945583703810144,1,34,smartwatch
1422629519413,0.009764958970435722,-8.28208956198164,6.08175551025061,2.3871622842264046,34.97391031885708,2.306722629723226,349.6005594823858,50.598968740372364,-0.7548533371940516,-0.06737522333615549,-0.13345577076144266,-0.03829100082627468,1,34,smartwatch
1422629519513,-0.17573927540420664,-8.57619170555122,6.294531597443828,4.031059224711086,32.88156095044429,1.0244215456234578,357.4979145871006,51.164208768114165,0.034741288330613074,-0.012950528025796368,-0.2528501132575436,0.2821584518248785,1,34,smartwatch
1422629519613,-0.4946482575507911,-8.672009191310321,5.737468766784414,3.790427395720217,34.04508775868743,1.9449705572658946,354.19498905127415,50.74060709382331,-0.34783290925199184,0.0015430391011832106,-0.05276452819039423,-0.10763938068100479,1,34,smartwatch
1422629519713,0.28658048315375984,-8.263792671630211,5.804695315218833,3.4772763496697716,35.50522534952909,0.6484940685159476,348.5330570716064,53.44716758546448,-0.14257038422807033,-0.08184568394752917,0.11734151992126851,0.07293889939655995,1,34,smartwatch
1422629519813,-0.34870911373572533,-7.766721103668882,6.130932968961717,3.0134716566727326,32.538980478666225,2.2302163368980126,340.2872243663475,54.78210902414108,0.19931511445089267,0.07179924014091277,-0.0033542565657417867,0.29278210480091577,1,34,smartwatch
1422629519913,0.3386492641737292,-8.86882916413428,5.968288026892295,2.6533665647657427,33.001585700414815,1.5280016228423465,356.99942823610644,50.09373567890622,-0.7004797516247132,0.035093516539286856,0.06529366906939138,-0.2672043411261347,1,34,smartwatch
1422629520013,-0.4243173588536989,-7.869555326219431,6.196127564564151,4.233120402074253,31.193060099074085,0.8786938602927354,343.3225116054026,52.929147194825646,-0.3842339281079252,-0.05802178038725654,-0.1809890278522876,0.05151053672620182,1,34,smartwatch
1422629520113,-0.15422022912133737,-7.9059373948347815,6.045402906402647,3.349828680999749,31.236701750726528,0.941467667113165,342.87806571984277,51.977058391053326,1.2270946835062775,0.0201309485585148,0.017240397184820844,0.026557536288720707,1,34,smartwatch
1422629520213,-0.28387617832516454,-8.637244155098053,5.87524571423815,3.8205701667374794,30.62295099428998,0.989886543471338,344.9132159206346,54.2244764810449,-0.9959265540684186,-0.01987559359525029,-0.1925047076871968,-0.23910407765604091,1,34,smartwatch
1422629520313,-0.159073966299216,-7.785395229390533,5.503847435273159,4.423252920118442,35.64812096464469,2.4187989186188785,353.3291157393005,54.68647983189414,-0.6775888829560981,0.0872012937777312,-0.0196279566484594,0.22617878574636324,1,34,smartwatch
1422629520413,-0.42831156063790665,-7.6950089762942095,6.064656051487996,4.478568987892368,32.695649231255416,2.1975779899097376,347.66925246123606,50.559155789171264,-1.7392283019158574,0.03609919108176457,0.19923552952654972,-0.1549045816995818,1,34,smartwatch
1422629520513,0.08923846429377669,-8.276990495407972,5.855529851486215,4.4097813388790055,31.707406295812326,1.054696118247594,350.03119628749744,51.6539390309347,1.7284542809508885,0.0682380060541539,-0.14920704062860715,0.06268533462992104,1,34,smartwatch
1422629520613,0.2983829005652341,-8.644097862111103,6.253008424268186,5.4941350477255195,31.21093612629452,2.1672059750211865,352.3051451684183,53.29163786343876,-1.7667090720455212,0.07866674585333755,0.25429076289241054,-0.13808051725508627,1,34,smartwatch
1422629520713,-0.43273603060702026,-8.576410644904966,5.967569777605799,5.837638927751923,34.08534795390491,0.6038193854944647,351.206677255842,50.207987762507464,-1.9340583489930312,0.09234681974826595,0.112194860880803,0.00847323548653478,1,34,smartwatch
1422629520813,0.21484237267680595,-8.251706710304711,5.972124165636918,2.659655348080728,32.55974012995691,0.9840576160398091,359.27905119838476,51.92007180683582,-1.2783307356592792,0.09915388856482729,0.2700189179460279,0.14539726908426903,1,34,smartwatch
1422629520913,0.16860920787445866,-8.45122375950752,6.453402088409274,5.037004914818978,34.80342666947388,0.9795835684949039,345.39415547514136,53.41958733980546,-1.2373921178927527,-0.021384399093619666,-0.25039032571755765,0.02008017312647037,1,34,smartwatch
1422629521013,-0.10480645781585718,-8.764123582583727,5.862772586900775,3.562669181039077,30.063859142709248,1.6532230632356628,341.68055600509433,51.96713542017435,1.279494093935154,0.05299424685699519,-0.2162564136860778,-0.10228147271173241,1,34,smartwatch
1422629521113,-0.2573836291099929,-8.970233522084332,5.748256089988859,3.5490177552508095,30.83854051684799,0.5850391058473956,346.6774357531051,53.28155607725,-0.02510040699421845,-0.06638848963628514,-0.1897968257605947,0.027213986016735803,1,34,smartwatch
1422629521213,-0.4018783101195905,-8.11440588457042,5.959959422815795,4.632514339022905,30.116520958354602,1.2449978648475961,341.0887826490649,51.77534749556786,-1.6740809250604114,0.0508747694896369,-0.20597788204110218,0.20705524038734718,1,34,smartwatch
1422629521313,0.045254650705088606,-8.481261642009489,5.734458992916178,5.322355635205933,32.39700801815745,0.740118255751591,348.72237280168673,54.87132845789043,1.1733037963493427,0.014536207773331908,-0.08121443499338599,-0.038507559481183506,1,34,smartwatch
1422629521413,-0.3515247558271627,-8.617679395110988,6.000186081345172,2.8374449801796415,35.747909170295344,1.0414937153561528,353.05133638288396,54.158212876387154,0.859109569182896,-0.04398141360842087,0.21164706013202012,0.27111231582251333,1,34,smartwatch
1422629521513,-0.44149131309570044,-8.602229156535648,6.176140993933137,3.832739039638111,32.84559181052283,0.8242186854116598,340.6469030716396,50.151737239565314,0.9065223366610153,-0.06346890002738144,0.030945404262932907,0.09022089251478527,1,34,smartwatch
1422629521613,-0.22123383293155197,-7.993148819846873,6.4669260147540735,2.1927251015181155,33.104395132872746,0.7936695669324088,350.33587191192584,51.13559120639417,-0.6326132983427195,-0.07045472043853154,0.08848461013782455,-0.22201120918738726,1,34,smartwatch
1422629521713,0.421019548230794,-8.25587051352991,5.670823299901299,2.696549521896921,31.183601102487902,1.514448113026246,356.7338019219079,51.23386628009638,-0.41543339717546557,0.02419274057145618,0.1444741768461955,-0.29324135105997257,1,34,smartwatch
1422629521813,0.10172750756858695,-7.665229167880445,5.701270132171262,4.630931964313215,34.972664613337344,0.7272927712779431,359.8694138234213,53.556669820294644,0.7551357937150542,-0.019105235891869937,-0.29930176296121896,-0.2621031845177274,1,34,smartwatch
1422629521913,-0.07540771527699963,-7.5183885788418525,6.119406667380499,2.4884518617368054,34.983366084942624,0.5016136408281107,358.31049793154295,54.487617613174265,-0.8701068012036344,0.09047432709067518,0.0722185109816551,0.032571100543728415,1,34,smartwatch
1422629522013,0.3115922836200604,-8.666795499467478,5.786340905484365,4.726540666910262,30.243782983551824,2.4209840019776836,350.412783681052,51.64767750420212,0.2692039580357246,0.0013822626740658678,0.18123400840589754,-0.07334116678599695,1,34,smartwatch
1422629522113,-0.09154988052562918,-8.810025321224579,6.303560995792177,5.0261894454078275,30.121498998425455,1.4585953239635356,352.8390784709949,53.81787759923831,0.576425217914101,-0.07631618402235403,0.0016118263500292107,-0.24103111044742465,1,34,smartwatch
1422629522213,-0.3200439905572139,-8.916337038932495,5.95327142527997,2.4766217403884343,30.97030111506206,2.46352090478797,358.52339361035,50.02326930474424,-1.3042904894828835,-0.09873613291015887,-0.05739785101009892,0.015269247657475615,1,34,smartwatch
1422629522313,0.16055156471921295,-8.830547947649704,6.247798167019175,3.7568217568438715,31.942620491022073,0.47073678524309986,350.2424145974056,54.70641961868098,-0.3382938995175002,-0.017363765548427695,0.12831784833025833,0.28643751122536215,1,34,smartwatch
1422629522413,-0.32264322584659433,-8.454526770394953,5.886536003875834,3.074007823370121,32.36263441958458,2.700532006765298,356.64705815236397,53.82605122726212,-0.9720066720669935,0.07045435498405828,-0.037117360192257864,-0.27771992091923065,1,34,smartwatch
1422629522513,0.12602517871310037,-8.867661569635791,5.94363047510595,3.9582894539413305,35.806630390203935,2.328508407110426,342.0483485690624,50.212043931243876,-0.27572706489219856,0.026973434817317732,-0.09389103175984281,0.06461252241513299,1,34,smartwatch
1422629522613,0.2473059098647391,-8.269172048988258,6.189912942598976,4.343763354514586,34.42204965502995,1.3536533180730035,356.89917296271705,51.1609625349298,0.328222015154382,0.04867755306734581,0.20106140512565912,0.2743729614261338,1,34,smartwatch
1422629522713,-0.4959082605904429,-8.947723531376495,6.288799508743817,2.1679120659149596,35.78877629786515,0.9585129235462966,344.3033368027687,54.6442918894716,1.714757443315452,0.0006872456807941185,-0.058039587359046185,0.226696689075559,1,34,smartwatch
1422629522813,-0.10540727320772192,-8.87096134338591,6.08068153183216,5.885178568763398,30.527039798871538,2.4954032378953523,343.889387610729,54.98087178207839,1.770000774809355,-0.09680181643222113,0.010957636502281765,0.2202675150069499,1,34,smartwatch
1422629522913,-0.2566918790420054,-8.031199883627727,5.991344278759783,2.074426751697728,34.62655203105204,2.774785244454908,343.35116803632405,54.75737220229524,1.8855381014246744,-0.016250701848282034,-0.08336308291334754,0.1443071061520848,1,34,smartwatch
1422629523013,-0.053015679684834005,-8.491488702510296,6.330133464973153,5.314148893225569,35.94982769753564,1.648630089290437,358.55979069893976,54.22131764150183,0.7854612251445925,0.08274355307431014,-0.046811770815539555,0.04365948987158352,1,34,smartwatch
1422629523113,-0.1403041233321436,-8.566144754601849,6.262239038462108,5.584396955762551,35.76354564693667,1.2157852880610005,355.20585703806927,52.411426214162276,-0.8098195567274371,0.06244103053784458,-0.206268206090462,-0.2656194601217324,1,34,smartwatch
1422629523213,0.24746922016622686,-8.144691302318423,6.155618517426718,5.84106618307626,33.02388186419151,2.280977102164405,356.03518460430433,52.06451080905963,-0.9574775705835652,-0.02963705929561937,-0.12583536943317988,0.027684750240744793,1,34,smartwatch
1422629523313,0.23588047211792118,-8.492835645330953,6.2195820258391965,5.3995690659388185,35.07514950366934,0.33985625739585645,344.43394953612926,51.097386685614715,-1.2935405192325429,0.08222356264784389,-0.2349420829809169,0.19821246621159383,1,34,smartwatch
1422629523413,-0.15271465126204498,-7.789183424066275,5.669570098205673,5.167926561050919,32.935317381567266,2.739054971371094,343.7840988414568,53.066602627156776,-0.5289940321571556,-0.03634592810825579,-0.24613899094357825,0.0011336339932707662,1,34,smartwatch
1422629523513,0.36640054243834774,-7.850926714996979,5.546349934425947,5.7726006673219645,31.251585538919038,1.9043135475026314,351.3245443167463,52.27148507399585,1.5907906594616708,-0.04398243246503211,0.2528778491672658,-0.2509259307977892,1,34,smartwatch
1422629523613,-0.26768541406822677,-8.008089691203114,5.511511800527738,3.4812046923425166,31.276195968455276,1.2509923545889385,341.69226155312106,54.236921234924125,0.051767820993005476,-0.08162917895646123,0.10946272809638419,0.19629375724756754,1,34,smartwatch
1422629523713,0.1036508433731178,-7.898289755297507,5.562691349342826,5.579880524765363,32.425733041126044,2.6926876893289156,351.0747737919666,51.7075640507112,0.5140999446765275,-0.06199013822185087,-0.2294481188648087,-0.13883368078933803,1,34,smartwatch
1422629523813,0.1147529083343618,-8.43140334265823,5.6385214653329285,5.654126800855467,32.05690233277674,0.8728378117578062,348.9067799832356,51.779380147014386,0.4291029662466812,0.09463864268276942,0.1005422172148373,-0.00913704582048025,1,34,smartwatch
1422629523913,-0.06926418044634053,-8.048904971001605,5.690189480877214,4.796836622914832,31.590660933294608,1.7725652416485473,346.0783738435407,51.161961820658874,-1.7231919729191616,-0.07591324799255593,-0.19258992866599753,0.095477634551911,1,34,smartwatch
1422629524013,0.3755605214065467,-8.821743850107922,6.469545757644293,5.814480370190991,35.67087337282816,2.3328629719232175,355.20005337880565,54.81596839941533,0.5885949068105822,-0.06501612927858133,-0.21023558136466433,0.08648293850488448,1,34,smartwatch
1422629524113,-0.26189243197598977,-7.720505563136511,5.807414404331202,4.028428843518144,34.46791472885027,2.055797375714846,347.45282760176383,53.728525975236806,0.4626136972943029,-0.013418397488873551,-0.2931052090969948,0.11693475793821045,1,34,smartwatch
1422629524213,-0.20665944623775778,-7.676849453657015,5.681936259220979,2.690401521376652,33.404115331493095,2.663462587689874,357.18555282482384,51.482898246452336,1.1622759730381005,0.08125658031118932,0.15577063958212722,0.0798553875868786,1,34,smartwatch
1422629524313,0.4986638094881467,-8.16623004778404,5.626460816710906,2.5441457770465488,35.76718722408481,1.2634824460581782,344.2301366358841,54.18563375601001,0.9022356253679682,0.09060018103262102,-0.20909604333222082,0.1971875018454568,1,34,smartwatch
1422629524413,0.2222991600876345,-7.997055081338997,6.4259276827294345,2.4798080098829853,33.04033434236846,1.0017220288675714,345.71831763672463,52.896560387667975,-1.7624754105510023,0.08319266260683475,-0.05835949826771186,-0.09128205459923627,1,34,smartwatch
1422629524513,-0.2879682754204862,-8.337236871602228,5.744508652129812,2.0503295119706317,35.859977312826864,1.4165474280733041,344.5915157465644,51.95518986448867,-1.3503941365035979,-0.09024136126491329,-0.009776769642065586,-0.2897459196618389,1,34,smartwatch
1422629524613,0.14331010808102485,-7.824132265720673,6.414973254073826,2.92581043172974,34.60932873328792,2.7952013205950066,343.3600442559213,54.01825872999186,-0.5695125611147489,0.061958974922499244,0.24295046963724215,0.021290888859444024,1,34,smartwatch
1422629524713,-0.16190186370868342,-8.272300018380184,6.185702667709671,3.0766081201028994,31.658244569949684,1.2153811947999318,355.10190980781954,54.31121391868461,-0.4412435811331141,0.06555578016203326,-0.11354414655574932,0.1970694591825844,1,34,smartwatch
1422629524813,-0.22743261707221363,-8.66489826225921,6.439869518673153,3.107034434288304,31.639522111405995,2.739016166491066,340.5285564916548,53.82905197686727,-0.5336391499033883,0.011483922518962797,-0.22718379645932593,0.2417973460393133,1,34,smartwatch
1422629524913,0.30930753064869365,-8.218974681142953,5.603595903483845,3.4728962901029403,31.264602251997438,2.8929097014404928,345.11166644390545,51.66963730902884,-0.11290462853647432,0.08150830267358758,0.2624968404395582,-0.24826860417492516,1,34,smartwatch
1422629525013,-0.4795211900859303,-7.674431754390367,6.376163450889196,4.374548498347961,32.492515800475445,2.820521243833556,354.78804183806227,52.115314376825935,0.9185619606021733,-0.09499057937491795,0.21030667610510417,-0.030052417163751954,1,34,smartwatch
1422629525113,0.011210272728485182,-8.998333991263905,5.570812398627525,2.437330424625962,32.66827986962866,0.34458803560573836,347.26535660987713,53.587901862083015,-0.024683151235682654,0.02534629759647511,0.1218492216877835,0.17357054171889424,1,34,smartwatch
1422629525213,-0.30446739341616635,-7.927080065281632,6.258008503645616,5.877943259760696,32.68638393889841,2.29306201721686,353.21432217956294,53.94553380699392,-0.6044983049887143,0.07582156588439762,-0.027045085323093188,-0.290930510481965,1,34,smartwatch
1422629525313,0.061980712577425545,-8.023041275379429,6.241640516615165,2.336927632785969,34.18861876270411,1.4641470304279682,348.1316478430228,50.91428977480031,-1.4179946782431538,-0.025748845913787483,-0.13401873622301297,-0.10451720271663553,1,34,smartwatch
1422629525413,-0.2816027300456684,-8.31255832331652,6.376575891388356,2.3802272603359973,32.39980103405323,0.5234315712820983,352.19290571688015,53.002488577780795,-1.6456397890736305,0.059040442786202074,-0.2416904812708703,0.02158306206835242,1,34,smartwatch
1422629525513,-0.24429120676538607,-8.706478516470531,6.031974937142796,5.301449824270093,35.886797936592544,2.697535433686872,344.74432031851774,53.50558398026762,1.1742032849292987,-0.05725827821642382,0.21101518901093647,-0.29368071378030214,1,34,smartwatch
1422629525613,0.33829964045607663,-7.803571822559703,6.0252097133391205,4.574289814963258,30.47880433418793,0.901965869384999,356.2923417018823,50.29464175814096,1.6973310348769073,0.05430650567428438,0.16287962418234259,-0.02182085037395942,1,34,smartwatch
1422629525713,0.19507711323938692,-8.356894709598192,5.928125964932892,2.5005222527621878,34.743527549132615,2.1137354311722714,350.4635405139539,50.26378368126531,0.3683268384694274,0.09002845420945041,-0.2157732131246367,0.03351273715921055,1,34,smartwatch
1422629525813,-0.23378447919707912,-8.338100549561208,6.1985309092231,2.1614917105598863,31.18818468726863,1.5087199595243095,354.6886177010918,50.48663863357858,-1.6107283071306662,0.005250338525667142,-0.11905605359297944,0.07026898631082301,1,34,smartwatch
1422629525913,-0.09375635696511231,-7.9652927800319935,6.251888735012605,3.3599756490181467,31.791495489517754,1.077500700655624,340.51620176156587,53.823801033468854,0.03806498128313507,-0.05233076281086755,0.06786165541771111,0.26500426281797956,1,34,smartwatch
1422629526013,0.4747647182637059,-8.970728424402983,6.3709935039541215,5.193013142909975,33.66292361183122,0.5334962340342837,343.41766405270806,50.73689491727233,1.1603874399634955,0.08384220937376544,-0.24191345637848588,-0.19498490096789123,1,34,smartwatch
1422629526113,0.09206149573659606,-7.8265977687632,5.528566262737352,2.7098186237289146,35.68520477586593,0.5033697633840211,348.7906557255251,50.034285170970044,1.7004745443635594,0.08253704179695953,-0.17062272607268278,0.20828176725445552,1,34,smartwatch
1422629526213,0.42868529559100443,-7.949177412451683,5.6549782413104905,3.347094982641405,35.10862136109496,2.831590967839104,355.69359247538785,50.70803576872588,-1.189697569434748,0.03686388975413418,0.25718011185406314,-0.016491543225502114,1,34,smartwatch
1422629526313,0.09266984057529237,-8.434259155624684,6.479493006857862,5.194443282618154,31.710659328198403,2.249734246975474,344.070935424252,54.39430897983602,-0.026745499801172468,0.06642593465469984,0.07215476673166848,-0.19108856895457266,1,34,smartwatch
1422629526413,-0.3735565371809557,-8.481960812791687,6.0754152223768445,4.498103982648255,30.15014215515077,2.2168710459873853,356.63699158850244,51.6686255829224,-0.5418369389505973,-0.04086917449156524,-0.056033154262523005,-0.05646752552797368,1,34,smartwatch
1422629526513,-0.20799890688968448,-8.728135331262166,6.1975523350528645,5.951571521616396,31.564186359420695,1.8203474922867722,350.2108368612504,54.09827337919638,-0.5305876175231719,-0.08563377795323796,-0.1637530952241564,0.03086693346454583,1,34,smartwatch
1422629526613,0.4750926905356804,-7.552828268914059,6.17741998846355,2.4950945765999712,30.65011760168673,1.0248911129918663,349.8532512492234,54.038271685247665,-1.2676873652510317,-0.029459896405040792,0.056477023504044876,0.17338814144537273,1,34,smartwatch
1422629526713,0.08403493719821176,-7.6973674077594625,6.394193683509584,2.0570523173655233,31.470893996464,1.6623267137620639,358.5446964409964,51.78578063671289,-0.37504567121204824,-0.037920731337350994,0.1572977476453023,0.02034634319875256,1,34,smartwatch
1422629526813,-0.06728337413757568,-8.415228417984363,6.457007719448787,5.856911668220139,30.962650801151224,0.4106603009606734,348.8300326376875,53.616492608112864,1.711558546052188,-0.08730727707871085,-0.08509239877898081,0.05676519031599725,1,34,smartwatch
1422629526913,-0.24453834689058318,-7.846489015157651,6.253148191838349,2.2110431396032832,32.67652369655799,1.7863646952097012,346.6310507161335,52.10855050891071,1.4506557252505305,-0.021109155598104196,0.012444547373078763,-0.005221495248622532,1,34,smartwatch
1422629527013,0.09865538540949748,-8.666562533386593,5.6115568823622315,5.071789265035438,35.06502781317906,2.1351764967195845,354.27748731277575,50.81482714213983,1.7936618816835272,-0.025575662059345763,-0.030769015763508878,0.04007791249446274,1,34,smartwatch
1422629527113,-0.1127846673120867,-7.532544261134417,6.344548502199967,3.804569500139747,30.85595232131087,0.49927481375428495,359.9966380667524,52.5682100012625,0.23474261687068587,0.01870808506677306,-0.22522167953236777,-0.13200764700009218,1,34,smartwatch
1422629527213,0.3414499771863764,-8.267013231441187,6.029814791579769,5.847616135456592,31.29443723168182,0.9322831123092279,344.94364611419064,51.71995043172161,1.9082796888980993,-0.00014815637258525083,-0.06738519728002385,0.06039081103666749,1,34,smartwatch
1422629527313,-0.22305207057975684,-7.935691900576522,6.405881663713197,5.838308319465252,34.82031713587226,1.8421496932554449,349.0936244142643,51.3547366457641,1.7603551580104821,0.03911224932435492,0.0902872018773464,-0.10333701704004136,1,34,smartwatch
1422629527413,-0.2728924175142733,-7.708753293712062,6.463559101377731,2.160152686644382,35.47903158743017,1.613731017692085,348.4575465892765,54.281810733309214,-1.3709819650683928,0.019306507684609578,0.10062270074887719,-0.11119470374754306,1,34,smartwatch
1422629527513,0.04821387986254344,-8.482270061611471,6.445652318121239,5.218559107529539,35.64618873320036,2.2756426428642484,347.3954384501868,54.30638081346622,1.515421106860849,-0.09458740831964628,-0.16472048636317257,-0.12456296351677823,1,34,smartwatch
1422629527613,0.0013132747395139255,-8.049410849303511,5.717948317432466,5.688715253111743,31.52331761951304,1.1900787057314033,357.07135899653196,54.30427616353889,-0.16302757474174534,0.05065094500097539,-0.19645239577244616,0.06621427934210478,1,34,smartwatch
1422629527713,-0.29172626799592094,-8.17630985517173,5.578557028167272,5.572854071509415,32.05037939662304,0.9839425700773401,347.2092373695384,51.93916335778375,-0.4332140438767138,0.008283758729967894,0.25068511938322474,0.03567978031608077,1,34,smartwatch
1422629527813,-0.4462980002139232,-8.038248491985659,5.542455586103285,5.945153427967502,34.92770962732478,1.3335421863568404,350.59116921528795,51.04079383848017,0.9505207450963757,-0.07177307723108234,-0.10915548927223992,-0.1463029787247929,1,34,smartwatch
1422629527913,0.3333492813028871,-8.084632517643351,6.063633069956902,5.737442404234657,32.73503583605418,0.4601123147679643,355.1410522014112,54.51537618485143,0.643750172139701,-0.03486187486980237,0.10155296495153404,-0.036560248495088654,1,34,smartwatch
1422629528013,-0.051991724275901374,-8.08063034514983,5.592782619634746,2.3157829398516308,31.993497648972763,2.975351172665327,354.45633452182096,52.45926377268393,-1.5035863516574701,-0.001552203540205646,0.23625586873836063,-0.0007469583477585084,1,34,smartwatch
1422629528113,0.07327725175888522,-8.905769068104872,5.8575261766621,2.5672752920886692,34.78741240892815,0.8967505315681839,348.57830505482303,52.76046166945737,-1.2618201616966322,0.05283661621402608,-0.23903385677788183,0.0015826363076552052,1,34,smartwatch
1422629528213,0.3996276834445044,-8.437059327091816,6.161396189634647,2.627427139846336,34.052280246862175,1.825608141073249,344.6707528655146,50.261014570921745,1.3077389231799832,0.07381518181294919,0.2359527982216863,-0.10024108822335065,1,34,smartwatch
1422629528313,-0.458004883615296,-8.983617314858042,6.4212960185377765,3.777124029314098,35.212986463099234,0.368290694211842,348.62399891630946,52.542351275962,-1.4571045675287007,-0.06308367971166823,-0.0502153949950431,-0.22628850318977484,1,34,smartwatch
1422629528413,0.17445015085683413,-7.722822478231275,5.868006751563147,4.486853806976443,30.697992432231636,1.8113896044420608,345.1474451010036,51.94575696360509,-0.3383337598041001,-0.0599105712724543,-0.044215669780490297,0.0701464001393649,1,34,smartwatch
1422629528513,-0.005370250111144448,-8.094221078207756,6.432348822657482,3.1599028849089192,31.120165681553203,1.1806305489250808,350.2680998014417,51.77251829896562,-0.9560991420488576,0.024101447234634477,0.003559633947706198,-0.08884904564132692,1,34,smartwatch
1422629528613,0.4973174625038872,-7.876881543589793,6.0220191911466525,4.6561979461994945,31.066460922632317,0.9107858198929268,351.27747880539147,50.14842730405456,-0.6020563990296166,-0.0816422061750548,-0.2372244083677188,0.06310707079726802,1,34,smartwatch
1422629528713,0.3524824293968776,-8.231746458195317,5.882370452996301,4.433791716941104,35.74033923849687,2.1126190115862444,345.2373721288325,53.41742487989784,0.9931480700767925,-0.07100995192064588,0.044842920441492906,0.07727460716361684,1,34,smartwatch
1422629528813,0.32332471247049777,-7.967159059583334,5.923834818709891,5.500909363426951,30.71569616920843,2.862090267901345,341.7600237317428,54.52177921102944,0.553756383762694,0.06908366101307659,0.13488412858559917,0.01220477546047738,1,34,smartwatch
1422629528913,0.028953262889780063,-7.55142597767062,5.689489840695753,2.538679592923932,33.43088102775054,1.8203605578648983,343.20008102255855,53.37999599144414,-1.3923113545569974,-0.0608523213090346,-0.033494325238330125,-0.23177248318028837,1,34,smartwatch
1422629529013,0.015877014913782572,-7.528476791074825,6.108855303531517,4.045869219186148,34.17384594868035,1.217243913979589,349.6028217603296,54.71079003346142,0.9327103686953788,0.012503848423651459,-0.1333555302665167,0.19733905187961603,1,34,smartwatch
1422629529113,0.36933807456368994,-8.025152410241743,6.490509729931052,4.656772727809961,30.4113087341859,0.7264856207012704,343.0987310694406,52.37176576171946,-1.9130826709979436,0.018282647823802026,0.026879853008615173,0.16917117102010604,1,34,smartwatch
1422629529213,0.035095645074757376,-8.862650214614234,5.725730245814693,3.407859255234084,31.788135592649294,1.9928351962627966,352.7937602987112,54.061077602955805,1.061355509610213,0.0013585188368312878,0.1312308845598824,0.10951290142603809,1,34,smartwatch
1422629529313,0.03364233315130971,-8.795601953619604,6.041457985655816,3.671551633038639,32.913630673100016,0.7204530736174668,344.07062513162504,50.888717532539786,-0.7213162061925105,0.019054843017371453,-0.12764177871434082,0.17167965237498722,1,34,smartwatch
1422629529413,-0.3757401273321236,-8.876131526158405,5.772877431103414,3.299746538511849,31.996972215288306,2.0674078319883527,354.8215895093591,54.578077920524514,-1.4082744913751633,0.09429886093773629,0.16998228615910455,0.019620326724032078,1,34,smartwatch
1422629529513,-0.04416627223248426,-7.68104645237802,6.243227752992498,4.097752039345608,33.18591768360619,1.8850370933065392,355.73469998183043,52.66838708105133,1.067146525524263,0.03251651995992072,-0.1448320827510378,-0.1323224110060929,1,34,smartwatch
1422629529613,-0.016885119850780006,-8.29281974101718,5.767677664282584,3.622554441968097,33.49953558254457,2.835901442696304,358.2286334225643,52.33669983658281,-0.11499259714373933,-0.0482524812496413,0.061732736570777935,-0.2345573152846102,1,34,smartwatch
1422629529713,-0.05965305459973247,-7.751576058191505,5.926725892001061,4.322601744520931,33.25368560391423,1.0917827838275918,346.7279793828206,53.22238940197036,0.3184202953961024,-0.07876042759206468,0.1769850352437926,0.07316266796686405,1,34,smartwatch
1422629529813,-0.024536311403144162,-8.386853868140793,6.108410609848854,3.7288926454699447,30.664678834177668,1.1855603291575714,352.08500540677426,51.06247352988338,1.1215511375939862,-0.015497462291707162,-0.16127862721192335,-0.26538114189382295,1,34,smartwatch
1422629529913,-0.34155260095657103,-7.552810128606797,6.060256367483866,5.450358494002161,31.776463811692597,0.811433988498039,353.9255820146997,52.35299075215993,0.7273967791497933,-0.0141746522328213,0.020915782435917962,-0.28474471875046364,1,34,smartwatch
1422629530013,0.1171162536886815,-7.949484046936062,6.0463010538666415,2.04678501240828,32.836166093501475,1.550929664053991,358.4922611269534,52.03546341728851,1.4958379682348268,-0.011629670236832104,0.10353896237667659,-0.053412083141453126,1,34,smartwatch
1422629530113,0.20243120406454373,-7.847665137792087,5.924381077359209,3.527709068372146,32.70338681221436,2.7136316746212383,354.3203200402376,52.3125880495253,-0.5563179358558337,-0.08392382006419552,-0.2314261213066925,0.19411322935733194,1,34,smartwatch
1422629530213,-0.4882906053241822,-8.190385864137184,5.903225786199282,2.945083324894004,33.29485174504101,2.540423809120364,342.0727092459977,52.879091468109756,1.7096167097981745,-0.05205790079543822,0.26972781540624263,0.14573951498745047,1,34,smartwatch
1422629530313,-0.26387135838272946,-8.898866049940407,6.223198863096226,2.5139068214281806,35.19459877772093,2.4329525445904374,351.86664093155844,54.48171543448948,1.6924363799953315,-0.0025476057983417483,0.18025096352664144,0.020404777862197687,1,34,smartwatch
1422629530413,-0.13355909268576527,-8.296852510058425,6.251342281800694,5.279360847622479,35.823638214618825,1.1589961473295123,352.66498458494283,52.94012104438819,0.5655705053646871,0.09961749756914087,-0.17980992823394643,-0.26955677932292094,1,34,smartwatch
1422629530513,0.337553524118418,-8.002193919621478,6.39030422871339,4.960852430437974,33.11767241067329,2.431432637545329,348.9577742553517,50.48389789206594,-1.707605887360704,-0.013725486363036526,0.10994837203728347,-0.015446680685433145,1,34,smartwatch
1422629530613,-0.111677571387925,-7.842946505899936,5.563930185064638,4.375022460598686,30.269375603366985,1.4677738077902556,348.0505227530746,54.319021366512374,0.06192260258412574,-0.005475349375006974,0.061364526038301725,0.1745655843067639,1,34,smartwatch
1422629530713,0.33979085796428155,-8.997291486396792,6.499363404285965,2.4444052524605207,33.01995888283454,0.9315204648144821,343.2824545283792,51.957154375243455,0.06515130267882663,-0.023285507171675393,0.06224085796692491,-0.12668650807053444,1,34,smartwatch
1422629530813,-0.4544460347675261,-8.18783401441088,5.6103511464557485,2.3787399598583945,34.49794931945633,2.140122163920693,350.26906966491015,53.172815804368355,0.5878058581878642,0.06306643850020954,0.11997129344938173,-0.04050234896725963,1,34,smartwatch
1422629530913,0.33117227852388953,-7.97145478500133,6.374541383652527,3.3216909935495753,34.29234136313976,1.7100793330292097,350.2725313620783,52.30551593327232,0.28860192330458867,-0.018294708914784547,-0.08423719424043016,-0.2357991634506812,1,34,smartwatch
1422629531013,-0.06661744023537153,-7.979451169425595,6.438388020287455,3.788536040214367,30.036118799101054,0.46135755896692976,359.76627295049906,52.235843595606084,0.9587917428161239,0.012282107386760457,0.04705388648102121,-0.25642689097080645,1,34,smartwatch
1422629531113,-0.4256951944441637,-8.18824999393214,5.804546152285593,3.7940845458128702,30.785407136151836,1.0386787425401978,344.93176248072393,53.38756905389912,-0.7216947115399299,0.04139173819632863,-0.2885743185654271,-0.09276645953176413,1,34,smartwatch
1422629531213,0.15699054281648894,-8.259817847863298,5.628058828370255,4.999991600673963,33.03487058094412,1.5968644763194162,353.0881622992415,50.89861620779951,0.002254239246331835,0.0062823986223213835,-0.13419328896780472,-0.10405288577546012,1,34,smartwatch
1422629531313,-0.36553468000085243,-7.952884150422838,5.982927354472885,4.258214223879858,33.781522407074974,2.7785855209243375,343.6633992120586,51.57337016436403,-1.7536243533957538,-0.018114547463583514,0.17457030822351166,0.2583340095234313,1,34,smartwatch
1422629531413,0.3390155742602994,-7.902848531007292,5.8776439194389125,3.127941024870058,30.901965674859635,2.844323073224423,357.38701301429955,51.996549374477866,-0.5791569474519349,0.0781507867435143,0.06748873469397743,0.17904980031182266,1,34,smartwatch
1422629531513,-0.10603597301866685,-7.611140263166987,6.393524154719682,3.151034752318851,34.821752911117436,2.3549810122545387,353.6860649603731,52.88395900536049,0.6956035677949477,0.07106099552732778,0.21990681396155637,-0.02253632150286644,1,34,smartwatch
1422629531613,0.3053459307041463,-8.852228256209346,5.503465197247424,3.3523095166852106,31.36609266905948,1.8513305363694705,346.01826647350646,51.17913523979231,-0.7728460627783584,0.05660132690680128,-0.07363175505323588,-0.22165265663730838,1,34,smartwatch
1422629531713,-0.33322628492417916,-8.768381038627592,6.201841511724553,5.869365698632386,30.18362474540717,0.6669213150402844,346.3191613617116,50.062115909902815,-1.8798066655321466,-0.061759530019212285,0.09071958713109274,-0.06723049441897436,1,34,smartwatch
1422629531813,0.4785053595408959,-8.010671366499002,6.038060916920907,4.083778296263722,30.625067350155998,2.8021877104065607,352.0784609961504,52.50992825317848,-1.1002123279639648,0.08085395952569069,0.06614030464805387,-0.24177558256781156,1,34,smartwatch
1422629531913,0.31412165696014926,-8.478322624713023,6.40356936197372,3.8212869789811608,33.497542248262675,1.6973977750526061,352.39224034696474,50.01700868602665,-1.2368037099470435,-0.0622418611728347,-0.20456111326165272,0.2423053786031963,1,34,smartwatch
1422629532013,0.38562057244640857,-8.337114849039267,6.069586310538832,2.0333923804953207,34.8467900585779,2.4887075310956335,349.5546971392149,50.95958819260632,-1.5049667385961611,-0.025194728649665474,0.040329270618647994,0.13925806477043906,1,34,smartwatch
1422629532113,0.36335366068635566,-8.01104923243552,6.247343658394157,3.102574367582901,32.32161530159243,0.5760593428397422,348.333354688,50.97329104597172,-1.4462533304314165,-0.006139195340635367,-0.13326433746869226,-0.22855984702161425,1,34,smartwatch
1422629532213,0.21077569040295208,-7.557220889400263,5.586060452291328,5.895293332223366,34.492385881358544,1.7048194827063483,347.7294432723107,52.21893487892814,1.9624836118390618,-0.07438483573702888,-0.2935280646623389,-0.2563412897504113,1,34,smartwatch
1422629532313,0.33715137790572625,-8.668732124188564,5.878333335437988,2.7769361336318807,32.08103215584359,0.5413217342373198,345.53877260449934,51.18203595324403,1.5111976043721773,-0.03763562327902892,-0.2817978034751519,0.11990362183118847,1,34,smartwatch
1422629532413,-0.282207254922785,-7.979172955131162,5.633226828627097,3.8369346175827515,32.767410794953015,2.6168513206121986,358.11420122492336,54.080389628383514,-0.31084070643833517,0.05268076941126007,0.20464003247658286,-0.14208712237313953,1,34,smartwatch
1422629532513,0.3946264971369494,-8.792596359819502,6.410596910593598,2.334637049769901,32.200114183430706,1.954937618500449,340.35920516642926,52.30570092893735,1.7285431447514923,0.049788937818025014,-0.1420106588216388,0.2672513178309425,1,34,smartwatch
1422629532613,-0.3096376446941208,-8.541181387797517,5.806148909780433,3.506291325123483,30.36528004549099,2.052695099167864,350.4374281856839,50.589006118382336,-0.4515507479855727,0.018815288594370982,0.11318122857645263,-0.04938741763473742,1,34,smartwatch
1422629532713,-0.46211970552645,-7.659174702067864,5.517137607952038,4.118042716258705,31.70513010169441,2.755063082685827,349.6518415537782,53.67137904545703,0.2424547835000519,-0.05392310544593977,0.14577460638822526,-0.041664823970309406,1,34,smartwatch
1422629532813,0.48432869475633555,-8.880276822245579,6.4870725452119045,4.576242032120351,31.840898408492873,1.7623947843173966,349.4522283958607,52.78284996903201,1.7067017326729172,-0.01673790341715317,-0.17403346033539044,0.2679313870001528,1,34,smartwatch
1422629532913,0.1478776088660435,-7.520486026851697,6.358781090341516,4.651414329579727,34.13874511219602,0.9673740915525393,340.2173566876684,52.911606331135474,0.6907379697289455,-0.04625713102335019,0.21896343792855838,0.26927950847878707,1,34,smartwatch
1422629533013,0.06941001216781506,-8.903808910354474,5.85825745268725,5.884607051772841,35.534934773087194,2.702906636494901,347.16037182652946,53.88152589053293,-1.2458935503240847,-0.0076523332792114845,-0.037046687213817486,0.11123218238864574,1,34,smartwatch
1422629533113,-0.035518346576011384,-7.777340063089156,6.386582623859248,2.1693719015514707,31.107224266531137,0.6317830879737685,355.4303877703779,52.16659736699233,1.5167858918675705,0.0952770605332558,0.29170491314643915,0.2674371556997947,1,34,smartwatch
1422629533213,0.3107240351576671,-8.501962258328641,6.040397385543361,3.1567819481916506,35.432122929247136,0.7464447118868589,352.5741056011879,50.274220999366484,-1.296358705211607,-0.09363528740093088,-0.00020820660529402568,0.23092769346087566,1,34,smartwatch
1422629533313,0.46591330694240607,-8.214641582685648,6.162786233576582,2.1129465185452783,30.35694524012165,0.4850412788125893,356.375273151381,53.068210311335655,-0.8204511548603914,-0.04602773541365324,-0.25957226400570854,-0.06258789871604906,1,34,smartwatch
1422629533413,-0.24879027650190966,-8.008457059349848,5.5732752585188505,5.312064597685991,31.357733526895643,2.9892318244929603,341.8593712660655,51.211477151621374,-1.1748780834876285,0.0009594697861122492,0.11320273034179279,-0.0940703027533327,1,34,smartwatch
1422629533513,0.44827480495647287,-8.568371956810429,6.0301552727755015,5.571749268970546,30.535455174077637,2.8739881570208974,357.8354843942892,51.08267114730708,1.3046085967932197,0.09742844822346078,-0.06025247408387299,0.20613006178416876,1,34,smartwatch
1422629533613,0.32093875124976146,-8.855044398158983,6.084122024852101,5.614847009143764,31.10347663008092,1.987039409170906,353.9536530273823,52.605074568803666,1.9311946763967773,0.08133306367494142,0.15260891693630146,-0.019934409342909465,1,34,smartwatch
1422629533713,0.324816754150955,-8.604769548017199,5.612877904765379,2.3325451275101785,34.34374322902968,1.52516493512409,346.4874973479936,53.83868690650515,0.1702444067254616,0.08622126097542027,-0.19231597976029574,0.008455074292379072,1,34,smartwatch
1422629533813,0.244086661890357,-8.745582806504489,6.3998735388320185,4.531283427342344,34.48800030136881,2.9336567187527574,357.5867057929529,51.38808062930289,-0.687984194934518,-0.09528804260689233,-0.2949698670155776,-0.13483054699790956,1,34,smartwatch
1422629533913,-0.4450215879451609,-7.615992738927773,6.33205704840032,3.8575339668663533,30.14386235157664,2.4199743757753063,347.3283096255538,53.23519214155629,0.6616435535875338,0.08705379144660841,-0.07117047377340485,0.2488166777532284,1,34,smartwatch
1422629534013,0.09501006601283957,-7.510243257174129,6.180959259519819,3.1776403422300956,31.251481470782927,2.887723456555938,357.4994883859884,51.590208410103145,1.414682011046386,0.04139007419734997,0.042561292300343445,0.11355212167520068,1,34,smartwatch
1422629534113,-0.19057047797834892,-7.951431707706948,5.507395013125648,4.3604488541579896,33.09308777984698,1.9990643482548278,346.97082550339445,51.79980771627954,1.959904210125825,-0.037965164782649954,-0.2863845595686369,0.19804910278202292,1,34,smartwatch
1422629534213,0.1028191847779687,-7.616835361744308,6.39831298405845,2.500384128104295,35.132180554508466,0.7884050396833369,350.16772997388074,54.640161278227396,-1.5510511150603183,0.0017649948324889586,0.15469762851166458,0.10194034300176935,1,34,smartwatch
1422629534313,-0.025336388192736536,-8.211848818222615,6.486195888459652,5.992881143240321,32.943141552074586,1.8479755991491287,340.7364085372496,51.08733990952628,-0.4814645339611072,-0.014347238480685226,-0.14373465667236393,-0.09656928305529347,1,34,smartwatch
1422629534413,-0.3351713550831952,-7.80507745833758,5.557124364927965,2.8404390866345604,33.161429906559476,2.4763129592933315,351.30056489463794,50.17193689148653,1.5221868367217763,-0.09283210524201946,0.2753680473420231,-0.06623412245785684,1,34,smartwatch
1422629534513,0.3869275740884216,-8.966996942272916,6.229656386614154,4.885686383868995,31.71229492121557,0.39045418978815566,356.6057367826762,54.661550289514274,1.3924283280893768,-0.04741337714238301,0.22555243486086768,-0.06767482090928545,1,34,smartwatch
1422629534613,0.045061306583507044,-7.916260272464513,6.1195922921285915,2.51930669566315,34.577394335832146,2.0858231561963563,351.7141916401912,54.15044801910832,1.9812132934147293,-0.05283533514980248,-0.1579504131917779,0.28281584774519714,1,34,smartwatch
1422629534713,0.011078300210918712,-8.691187870686662,5.975386017761339,5.39079495999121,32.05916096001511,1.7827703323041504,358.62802873538425,52.254177779075896,1.4420761265080304,-0.02859955222272846,-0.26677495028912707,0.2524964611402664,1,34,smartwatch
1422629534813,-0.37097818791957937,-8.29136947036305,5.936127848803972,2.939533123826615,35.56545785146696,0.5734371971541823,356.5344967924745,50.80886845573689,0.16532327279055758,-0.03537389836201557,0.23451695418505109,0.2780194370463284,1,34,smartwatch
1422629534913,-0.2416437537568873,-8.829231923387027,5.818453174999906,2.808331661944486,30.56941708775519,1.4196811000550758,342.9707185747528,54.392652472167946,-1.6504046577680427,0.09973203856730303,0.09578779499745227,-0.14542695660735447,1,34,smartwatch
1422629535013,0.38177869170593837,-7.886703206996197,6.467109882832321,5.019698933984198,35.792813961866074,2.763725548506522,340.79761205776737,54.77781604386734,-0.26552387183035053,-0.012422079238438563,0.22453566534602393,-0.02098472609042734,1,34,smartwatch
1422629535113,-0.445457842599872,-7.5488771858759645,5.888473656153541,4.4546014385001795,32.07149093663213,0.8607822653345747,351.48634941992503,50.96298373828302,1.9801457150563473,0.08233125102621361,0.2323653285900495,0.10503954992914932,1,34,smartwatch
1422629535213,-0.3933784905164288,-8.556713104441293,5.536352584621868,4.018564493611329,34.660820832875096,0.30955168535772387,353.08431463159525,51.68771806642569,0.8094825591819186,-0.07579320194136291,0.1773847251478743,0.2619472089882879,1,34,smartwatch
1422629535313,-0.46486657006664844,-8.775401026379171,5.594699941568776,5.155298676952821,30.072107494341402,1.1621724546758485,352.07954891772226,51.47631576334201,-1.160772121441326,0.07657939503556371,-0.0005423064816361678,-0.25269003702556886,1,34,smartwatch
1422629535413,-0.37938459950226233,-8.153093454086033,6.1126711135099026,2.705623164219382,30.097443530856122,1.614129729774659,349.87042090193825,52.28796920409219,0.8135821949305213,0.0335133171559486,0.039954438133024794,-0.2845425544019477,1,34,smartwatch
1422629535513,0.4943870871398429,-8.383145634410482,5.676722878862438,5.972163199669684,32.111799874344854,2.6689426220949213,353.31194085727964,52.56790950840519,-0.0036438704772780994,0.0010587896776798889,0.08847650989571992,0.1293310828556325,1,34,smartwatch
1422629535613,-0.19494929636685243,-8.146343341431315,6.115972500620884,3.6783158860082903,30.23594661197031,1.7613986481464712,348.57345309021446,54.43235534005669,0.03622712034928188,0.039410311928620156,-0.18435365231029954,0.11440021537256456,1,34,smartwatch
1422629535713,-0.06365086126172248,-8.787292947414063,6.287184636002927,2.8654968923587707,34.031247542776136,0.5521922883915016,341.22257752529083,53.733776240288854,0.5682936932456748,-0.0801728812782085,0.22030681237472388,0.0063529787774059265,1,34,smartwatch
1422629535813,0.27902890971288097,-8.646287926447073,5.8350006959500105,3.1692517340641633,35.64577957295479,2.431404319394007,358.3564295040525,50.462078317179824,1.9860321310291384,-0.08169645755962021,0.13194766011457892,0.05159439044554115,1,34,smartwatch
1422629535913,0.042647546840024475,-8.9309300649026,6.267624514372647,3.989837881853361,31.652688651999096,1.5125110104263253,353.7329521470577,54.69236079179818,1.351646198862603,0.07931159355136183,-0.015218219809191025,0.13267337597295342,1,34,smartwatch
1422629536013,0.3842734066939433,-8.686384409124233,6.492195697946989,2.0848413146729485,35.076669396952944,2.194723373754274,351.7430591187135,50.578597165763284,-1.445787840190477,-0.08787489003232529,0.06340696058042711,0.22912823128909704,1,34,smartwatch
1422629536113,0.07982708420270901,-7.531153535628606,6.270742414185492,4.427915570565441,34.15309707334285,1.960950499769108,352.13188165871287,52.586036406128,1.3812741887667306,-0.06261546027068904,0.2618349489434862,0.01896734695676089,1,34,smartwatch
1422629536213,-0.12465347506452806,-8.916407742792067,5.738681615064271,5.791059678561018,30.89961937754509,0.35200542698830195,352.188412110146,50.591438134543615,0.3590351345531535,-0.05365468587226181,-0.19582788566254028,0.10298990473762398,1,34,smartwatch
1422629536313,0.37841554747317774,-8.534344131323095,5.511197627331677,3.131375563388017,31.109601814957934,2.2435280566306655,359.12210535601866,53.46951554961705,0.0356675866271452,0.023747795610293027,-0.22821463065453101,0.1398791694067245,1,34,smartwatch
1422629536413,-0.09932864746918013,-8.415437143485663,6.342829200384837,5.437959946103642,34.0176769084938,1.5362137745173259,347.90364614233096,51.970848345366576,1.2184812953856254,-0.04372388238098113,0.15805273761930078,-0.14549493403666147,1,34,smartwatch
1422629536513,-0.3457767073066218,-8.937652625606976,5.716204639829055,4.666675300715751,30.38068411450696,1.962421856364851,348.3172247004137,54.73604953177999,0.5211504626620069,-0.09928837017599644,-0.2689968250877897,-0.22249743881122042,1,34,smartwatch
1422629536613,-0.3557561416462174,-7.827123270383455,5.80913105391889,3.774183322866207,30.57793730166007,1.9633554335364305,348.7037379114726,51.09701799326051,-0.9410128890931673,-0.0429468856405667,-0.033298287832073836,0.22073934910464926,1,34,smartwatch
1422629536713,-0.365871097122375,-8.080218460520285,6.338345174851776,2.451070279151297,33.29437223450825,2.841565450390745,350.9784058842245,52.01161605752723,-1.3043132097845427,-0.05747372534068345,-0.2672416606485679,0.06407651030068257,1,34,smartwatch
